{"datasetJSONCreationDateTime":"2024-07-30T16:40:29","datasetJSONVersion":"1.1.0","fileOID":"www.cdisc.org/StudyMSGv2/1/Define-XML_2.1.0/2024-07-30/ae","dbLastModifiedDateTime":"2020-08-21T09:14:28","originator":"CDISC SDTM MSG Team","sourceSystem":{"name":"SAS on DESKTOP-K9AB6GC","version":"9.04.01M7P08052020"},"studyOID":"cdisc.com/CDISCPILOT01","metaDataVersionOID":"MDV.MSGv2.0.SDTMIG.3.3.SDTM.1.7","metaDataRef":"define.xml","itemGroupOID":"IG.AE","records":74,"name":"AE","label":"Adverse Events","columns":[{"itemOID":"ITEMGROUPDATASEQ","name":"ITEMGROUPDATASEQ","label":"Record Identifier","dataType":"integer"},{"itemOID":"IT.AE.STUDYID","name":"STUDYID","label":"Study Identifier","dataType":"string","length":12,"keySequence":1},{"itemOID":"IT.AE.DOMAIN","name":"DOMAIN","label":"Domain Abbreviation","dataType":"string","length":2},{"itemOID":"IT.AE.USUBJID","name":"USUBJID","label":"Unique Subject Identifier","dataType":"string","length":8,"keySequence":2},{"itemOID":"IT.AE.AESEQ","name":"AESEQ","label":"Sequence Number","dataType":"integer"},{"itemOID":"IT.AE.AELNKID","name":"AELNKID","label":"Link ID","dataType":"string","length":50,"keySequence":5},{"itemOID":"IT.AE.AETERM","name":"AETERM","label":"Reported Term for the Adverse Event","dataType":"string","length":200},{"itemOID":"IT.AE.AELLT","name":"AELLT","label":"Lowest Level Term","dataType":"string","length":1},{"itemOID":"IT.AE.AELLTCD","name":"AELLTCD","label":"Lowest Level Term Code","dataType":"string","length":1},{"itemOID":"IT.AE.AEDECOD","name":"AEDECOD","label":"Dictionary-Derived Term","dataType":"string","length":1,"keySequence":3},{"itemOID":"IT.AE.AEPTCD","name":"AEPTCD","label":"Preferred Term Code","dataType":"string","length":1},{"itemOID":"IT.AE.AEHLT","name":"AEHLT","label":"High Level Term","dataType":"string","length":1},{"itemOID":"IT.AE.AEHLTCD","name":"AEHLTCD","label":"High Level Term Code","dataType":"string","length":1},{"itemOID":"IT.AE.AEHLGT","name":"AEHLGT","label":"High Level Group Term","dataType":"string","length":1},{"itemOID":"IT.AE.AEHLGTCD","name":"AEHLGTCD","label":"High Level Group Term Code","dataType":"string","length":1},{"itemOID":"IT.AE.AEBODSYS","name":"AEBODSYS","label":"Body System or Organ Class","dataType":"string","length":1},{"itemOID":"IT.AE.AEBDSYCD","name":"AEBDSYCD","label":"Body System or Organ Class Code","dataType":"string","length":1},{"itemOID":"IT.AE.AESOC","name":"AESOC","label":"Primary System Organ Class","dataType":"string","length":1},{"itemOID":"IT.AE.AESOCCD","name":"AESOCCD","label":"Primary System Organ Class Code","dataType":"string","length":1},{"itemOID":"IT.AE.AESEV","name":"AESEV","label":"Severity/Intensity","dataType":"string","length":8},{"itemOID":"IT.AE.AESER","name":"AESER","label":"Serious Event","dataType":"string","length":1},{"itemOID":"IT.AE.AEACN","name":"AEACN","label":"Action Taken with Study Treatment","dataType":"string","length":16},{"itemOID":"IT.AE.AEREL","name":"AEREL","label":"Causality","dataType":"string","length":16},{"itemOID":"IT.AE.AEOUT","name":"AEOUT","label":"Outcome of Adverse Event","dataType":"string","length":32},{"itemOID":"IT.AE.AESCAN","name":"AESCAN","label":"Involves Cancer","dataType":"string","length":1},{"itemOID":"IT.AE.AESCONG","name":"AESCONG","label":"Congenital Anomaly or Birth Defect","dataType":"string","length":1},{"itemOID":"IT.AE.AESDISAB","name":"AESDISAB","label":"Persist or Signif Disability/Incapacity","dataType":"string","length":1},{"itemOID":"IT.AE.AESDTH","name":"AESDTH","label":"Results in Death","dataType":"string","length":1},{"itemOID":"IT.AE.AESHOSP","name":"AESHOSP","label":"Requires or Prolongs Hospitalization","dataType":"string","length":1},{"itemOID":"IT.AE.AESLIFE","name":"AESLIFE","label":"Is Life Threatening","dataType":"string","length":1},{"itemOID":"IT.AE.AESOD","name":"AESOD","label":"Occurred with Overdose","dataType":"string","length":1},{"itemOID":"IT.AE.EPOCH","name":"EPOCH","label":"Epoch","dataType":"string","length":9},{"itemOID":"IT.AE.AESTDTC","name":"AESTDTC","label":"Start Date/Time of Adverse Event","dataType":"date","keySequence":4},{"itemOID":"IT.AE.AEENDTC","name":"AEENDTC","label":"End Date/Time of Adverse Event","dataType":"date"},{"itemOID":"IT.AE.AESTDY","name":"AESTDY","label":"Study Day of Start of Adverse Event","dataType":"integer"},{"itemOID":"IT.AE.AEENDY","name":"AEENDY","label":"Study Day of End of Adverse Event","dataType":"integer"},{"itemOID":"IT.AE.AEENRTPT","name":"AEENRTPT","label":"End Relative to Reference Time Point","dataType":"string","length":7},{"itemOID":"IT.AE.AEENTPT","name":"AEENTPT","label":"End Reference Time Point","dataType":"date"}],"rows":[[1,"CDISCPILOT01","AE","CDISC001",1,"1","INJECTION SITE REACTION","","","","","","","","","","","","","MODERATE","N","DRUG WITHDRAWN","RELATED","NOT RECOVERED/NOT RESOLVED","N","N","N","N","N","N","N","TREATMENT","2012-12-02","",3,null,"ONGOING","2013-05-20"],[2,"CDISCPILOT01","AE","CDISC001",2,"2","FATIGUE","","","","","","","","","","","","","MODERATE","N","DOSE NOT CHANGED","UNLIKELY RELATED","NOT RECOVERED/NOT RESOLVED","N","N","N","N","N","N","N","TREATMENT","2013-01-14","",46,null,"ONGOING","2013-05-20"],[3,"CDISCPILOT01","AE","CDISC002",1,"1","INJECTION SITE REACTION","","","","","","","","","","","","","MILD","N","DOSE NOT CHANGED","POSSIBLY RELATED","NOT RECOVERED/NOT RESOLVED","N","N","N","N","N","N","N","TREATMENT","2012-11-16","",2,null,"ONGOING","2013-01-14"],[4,"CDISCPILOT01","AE","CDISC002",2,"2","SHOULDER PAIN","","","","","","","","","","","","","MILD","N","DOSE NOT CHANGED","NOT RELATED","NOT RECOVERED/NOT RESOLVED","N","N","N","N","N","N","N","TREATMENT","2012-11-21","",7,null,"ONGOING","2013-01-14"],[5,"CDISCPILOT01","AE","CDISC002",3,"3","JOINT DISLOCATION","","","","","","","","","","","","","MODERATE","N","DOSE NOT CHANGED","NOT RELATED","RECOVERED/RESOLVED","N","N","N","N","N","N","N","TREATMENT","2012-11-21","2012-11-21",7,7,"",""],[6,"CDISCPILOT01","AE","CDISC002",4,"4","INCONTINENCE","","","","","","","","","","","","","MILD","N","DOSE NOT CHANGED","NOT RELATED","NOT RECOVERED/NOT RESOLVED","N","N","N","N","N","N","N","TREATMENT","2012-11-22","",8,null,"ONGOING","2013-01-14"],[7,"CDISCPILOT01","AE","CDISC002",5,"5","INJECTION SITE REACTION","","","","","","","","","","","","","MILD","N","DOSE NOT CHANGED","POSSIBLY RELATED","NOT RECOVERED/NOT RESOLVED","N","N","N","N","N","N","N","TREATMENT","2012-11-29","",15,null,"ONGOING","2013-01-14"],[8,"CDISCPILOT01","AE","CDISC002",6,"6","SKIN LACERATION","","","","","","","","","","","","","MILD","N","DOSE NOT CHANGED","NOT RELATED","NOT RECOVERED/NOT RESOLVED","N","N","N","N","N","N","N","TREATMENT","2012-12-09","",25,null,"ONGOING","2013-01-14"],[9,"CDISCPILOT01","AE","CDISC002",7,"7","CONFUSIONAL STATE","","","","","","","","","","","","","MODERATE","N","DOSE NOT CHANGED","NOT RELATED","NOT RECOVERED/NOT RESOLVED","N","N","N","N","N","N","N","TREATMENT","2013-01-11","",58,null,"ONGOING","2013-01-14"],[10,"CDISCPILOT01","AE","CDISC002",8,"8","DYSPNOEA","","","","","","","","","","","","","MODERATE","N","DOSE NOT CHANGED","NOT RELATED","NOT RECOVERED/NOT RESOLVED","N","N","N","N","N","N","N","TREATMENT","2013-01-11","",58,null,"ONGOING","2013-01-14"],[11,"CDISCPILOT01","AE","CDISC002",9,"9","SUDDEN DEATH","","","","","","","","","","","","","SEVERE","Y","DRUG WITHDRAWN","NOT RELATED","FATAL","N","N","N","Y","N","Y","N","TREATMENT","2013-01-14","2013-01-14",61,61,"",""],[12,"CDISCPILOT01","AE","CDISC003",1,"1","HYPERHIDROSIS","","","","","","","","","","","","","MILD","N","DOSE NOT CHANGED","POSSIBLY RELATED","NOT RECOVERED/NOT RESOLVED","N","N","N","N","N","N","N","TREATMENT","2013-08-30","",2,null,"ONGOING","2013-02-13"],[13,"CDISCPILOT01","AE","CDISC003",2,"2","STOMACH DISCOMFORT","","","","","","","","","","","","","MILD","N","DOSE NOT CHANGED","POSSIBLY RELATED","NOT RECOVERED/NOT RESOLVED","N","N","N","N","N","N","N","TREATMENT","2013-08-30","",2,null,"ONGOING","2013-02-13"],[14,"CDISCPILOT01","AE","CDISC003",3,"3","PAIN","","","","","","","","","","","","","MILD","N","DOSE NOT CHANGED","POSSIBLY RELATED","NOT RECOVERED/NOT RESOLVED","N","N","N","N","N","N","N","TREATMENT","2013-08-31","",3,null,"ONGOING","2013-02-13"],[15,"CDISCPILOT01","AE","CDISC003",4,"4","NASAL CONGESTION","","","","","","","","","","","","","MILD","N","DOSE NOT CHANGED","NOT RELATED","NOT RECOVERED/NOT RESOLVED","N","N","N","N","N","N","N","TREATMENT","2013-09-01","",4,null,"ONGOING","2013-02-13"],[16,"CDISCPILOT01","AE","CDISC003",5,"5","MALAISE","","","","","","","","","","","","","MODERATE","N","DOSE NOT CHANGED","UNLIKELY RELATED","NOT RECOVERED/NOT RESOLVED","N","N","N","N","N","N","N","TREATMENT","2013-09-02","",5,null,"ONGOING","2013-02-13"],[17,"CDISCPILOT01","AE","CDISC003",6,"6","MYALGIA","","","","","","","","","","","","","MILD","N","DOSE NOT CHANGED","POSSIBLY RELATED","NOT RECOVERED/NOT RESOLVED","N","N","N","N","N","N","N","TREATMENT","2013-09-02","",5,null,"ONGOING","2013-02-13"],[18,"CDISCPILOT01","AE","CDISC003",7,"7","PHARYNGOLARYNGEAL PAIN","","","","","","","","","","","","","MILD","N","DOSE NOT CHANGED","NOT RELATED","NOT RECOVERED/NOT RESOLVED","N","N","N","N","N","N","N","TREATMENT","2013-09-02","",5,null,"ONGOING","2013-02-13"],[19,"CDISCPILOT01","AE","CDISC003",8,"8","PRODUCTIVE COUGH","","","","","","","","","","","","","MILD","N","DOSE NOT CHANGED","NOT RELATED","NOT RECOVERED/NOT RESOLVED","N","N","N","N","N","N","N","TREATMENT","2013-09-02","",5,null,"ONGOING","2013-02-13"],[20,"CDISCPILOT01","AE","CDISC003",9,"9","DIZZINESS","","","","","","","","","","","","","MODERATE","N","DOSE NOT CHANGED","UNLIKELY RELATED","RECOVERED/RESOLVED","N","N","N","N","N","N","N","TREATMENT","2013-09-02","2013-09-03",5,6,"",""],[21,"CDISCPILOT01","AE","CDISC003",10,"10","DIZZINESS","","","","","","","","","","","","","MILD","N","DOSE NOT CHANGED","POSSIBLY RELATED","NOT RECOVERED/NOT RESOLVED","N","N","N","N","N","N","N","TREATMENT","2013-09-04","",7,null,"ONGOING","2013-02-13"],[22,"CDISCPILOT01","AE","CDISC003",11,"11","CONTUSION","","","","","","","","","","","","","MILD","N","DOSE NOT CHANGED","UNLIKELY RELATED","RECOVERED/RESOLVED","N","N","N","N","N","N","N","TREATMENT","2013-09-05","2013-10-08",8,41,"",""],[23,"CDISCPILOT01","AE","CDISC003",12,"12","HEADACHE","","","","","","","","","","","","","MILD","N","DOSE NOT CHANGED","NOT RELATED","NOT RECOVERED/NOT RESOLVED","N","N","N","N","N","N","N","TREATMENT","2013-09-15","",18,null,"ONGOING","2013-02-13"],[24,"CDISCPILOT01","AE","CDISC003",13,"13","EPISTAXIS","","","","","","","","","","","","","MILD","Y","DOSE NOT CHANGED","UNLIKELY RELATED","NOT RECOVERED/NOT RESOLVED","N","N","N","N","N","N","N","TREATMENT","2013-09-30","",33,null,"ONGOING","2013-02-13"],[25,"CDISCPILOT01","AE","CDISC003",14,"14","INJECTION SITE REACTION","","","","","","","","","","","","","MILD","N","DOSE NOT CHANGED","RELATED","NOT RECOVERED/NOT RESOLVED","N","N","N","N","N","N","N","TREATMENT","2013-10-15","",48,null,"ONGOING","2013-02-13"],[26,"CDISCPILOT01","AE","CDISC003",15,"16","RESPIRATORY TRACT CONGESTION","","","","","","","","","","","","","MILD","N","DOSE NOT CHANGED","NOT RELATED","NOT RECOVERED/NOT RESOLVED","N","N","N","N","N","N","N","TREATMENT","2013-10-23","",56,null,"ONGOING","2013-02-13"],[27,"CDISCPILOT01","AE","CDISC003",16,"17","RHINITIS","","","","","","","","","","","","","MILD","N","DOSE NOT CHANGED","NOT RELATED","NOT RECOVERED/NOT RESOLVED","N","N","N","N","N","N","N","TREATMENT","2013-10-23","",56,null,"ONGOING","2013-02-13"],[28,"CDISCPILOT01","AE","CDISC003",17,"18","FEELING ABNORMAL","","","","","","","","","","","","","MILD","N","DOSE NOT CHANGED","POSSIBLY RELATED","NOT RECOVERED/NOT RESOLVED","N","N","N","N","N","N","N","TREATMENT","2013-10-24","",57,null,"ONGOING","2013-02-13"],[29,"CDISCPILOT01","AE","CDISC003",18,"19","LIBIDO DECREASED","","","","","","","","","","","","","MILD","N","DOSE NOT CHANGED","POSSIBLY RELATED","NOT RECOVERED/NOT RESOLVED","N","N","N","N","N","N","N","TREATMENT","2013-10-24","",57,null,"ONGOING","2013-02-13"],[30,"CDISCPILOT01","AE","CDISC003",19,"20","LISTLESS","","","","","","","","","","","","","MILD","N","DRUG WITHDRAWN","POSSIBLY RELATED","NOT RECOVERED/NOT RESOLVED","N","N","N","N","N","N","N","TREATMENT","2013-10-24","",57,null,"ONGOING","2013-02-13"],[31,"CDISCPILOT01","AE","CDISC005",1,"1","INJECTION SITE REACTION","","","","","","","","","","","","","MILD","N","DOSE NOT CHANGED","RELATED","RECOVERED/RESOLVED","N","N","N","N","N","N","N","TREATMENT","2013-02-07","2013-02-07",4,4,"",""],[32,"CDISCPILOT01","AE","CDISC005",2,"2","INJECTION SITE REACTION","","","","","","","","","","","","","MILD","N","DOSE NOT CHANGED","POSSIBLY RELATED","NOT RECOVERED/NOT RESOLVED","N","N","N","N","N","N","N","TREATMENT","2013-03-23","",48,null,"ONGOING","2013-08-06"],[33,"CDISCPILOT01","AE","CDISC005",3,"4","INJECTION SITE REACTION","","","","","","","","","","","","","MILD","N","DOSE NOT CHANGED","POSSIBLY RELATED","RECOVERED/RESOLVED","N","N","N","N","N","N","N","TREATMENT","2013-03-23","2013-03-26",48,51,"",""],[34,"CDISCPILOT01","AE","CDISC005",4,"5","INJECTION SITE REACTION","","","","","","","","","","","","","MILD","N","DOSE NOT CHANGED","POSSIBLY RELATED","NOT RECOVERED/NOT RESOLVED","N","N","N","N","N","N","N","TREATMENT","2013-04-12","",68,null,"ONGOING","2013-08-06"],[35,"CDISCPILOT01","AE","CDISC005",5,"7","CHEST DISCOMFORT","","","","","","","","","","","","","MILD","N","DOSE NOT CHANGED","NOT RELATED","RECOVERED/RESOLVED","N","N","N","N","N","N","N","TREATMENT","2013-06-24","2013-06-24",141,141,"",""],[36,"CDISCPILOT01","AE","CDISC005",6,"8","HEADACHE","","","","","","","","","","","","","MILD","N","DOSE NOT CHANGED","NOT RELATED","RECOVERED/RESOLVED","N","N","N","N","N","N","N","TREATMENT","2013-06-24","2013-06-24",141,141,"",""],[37,"CDISCPILOT01","AE","CDISC005",7,"9","COUGH","","","","","","","","","","","","","MODERATE","N","DOSE NOT CHANGED","NOT RELATED","RECOVERED/RESOLVED","N","N","N","N","N","N","N","TREATMENT","2013-07-17","2013-07-26",164,173,"",""],[38,"CDISCPILOT01","AE","CDISC007",1,"1","INJECTION SITE REACTION","","","","","","","","","","","","","MODERATE","N","DRUG WITHDRAWN","POSSIBLY RELATED","NOT RECOVERED/NOT RESOLVED","N","N","N","N","N","N","N","TREATMENT","2013-01-19","",15,null,"ONGOING","2013-06-20"],[39,"CDISCPILOT01","AE","CDISC007",2,"5","SALIVARY HYPERSECRETION","","","","","","","","","","","","","MILD","N","DOSE NOT CHANGED","POSSIBLY RELATED","NOT RECOVERED/NOT RESOLVED","N","N","N","N","N","N","N","TREATMENT","2013-01-19","",15,null,"ONGOING","2013-06-20"],[40,"CDISCPILOT01","AE","CDISC007",3,"6","PARAESTHESIA","","","","","","","","","","","","","MILD","N","DOSE NOT CHANGED","NOT RELATED","RECOVERED/RESOLVED","N","N","N","N","N","N","N","TREATMENT","2013-02-08","2013-02-08",35,35,"",""],[41,"CDISCPILOT01","AE","CDISC008",1,"1","COMPLETED SUICIDE","","","","","","","","","","","","","SEVERE","Y","DRUG WITHDRAWN","NOT RELATED","FATAL","N","N","N","Y","N","N","N","TREATMENT","2014-10-31","2014-10-31",174,174,"",""],[42,"CDISCPILOT01","AE","CDISC009",1,"1","HEART RATE IRREGULAR","","","","","","","","","","","","","MILD","N","DOSE NOT CHANGED","POSSIBLY RELATED","RECOVERED/RESOLVED","N","N","N","N","N","N","N","TREATMENT","2013-01-19","2013-01-19",90,90,"",""],[43,"CDISCPILOT01","AE","CDISC009",2,"2","DIZZINESS","","","","","","","","","","","","","MILD","N","DOSE NOT CHANGED","POSSIBLY RELATED","RECOVERED/RESOLVED","N","N","N","N","N","N","N","TREATMENT","2013-02-04","2013-02-08",106,110,"",""],[44,"CDISCPILOT01","AE","CDISC009",3,"3","HEADACHE","","","","","","","","","","","","","MILD","N","DOSE NOT CHANGED","NOT RELATED","NOT RECOVERED/NOT RESOLVED","N","N","N","N","N","N","N","TREATMENT","2013-02-16","",118,null,"ONGOING","2013-04-28"],[45,"CDISCPILOT01","AE","CDISC009",4,"4","HEART RATE IRREGULAR","","","","","","","","","","","","","MILD","N","DOSE NOT CHANGED","POSSIBLY RELATED","RECOVERED/RESOLVED","N","N","N","N","N","N","N","TREATMENT","2013-03-16","2013-03-16",146,146,"",""],[46,"CDISCPILOT01","AE","CDISC011",1,"1","DIZZINESS","","","","","","","","","","","","","MILD","N","DOSE NOT CHANGED","POSSIBLY RELATED","RECOVERED/RESOLVED","N","N","N","N","N","N","N","TREATMENT","2012-12-18","2012-12-18",12,12,"",""],[47,"CDISCPILOT01","AE","CDISC011",2,"2","INJECTION SITE REACTION","","","","","","","","","","","","","MILD","N","DOSE NOT CHANGED","RELATED","RECOVERED/RESOLVED","N","N","N","N","N","N","N","TREATMENT","2013-01-12","2013-01-12",37,37,"",""],[48,"CDISCPILOT01","AE","CDISC011",3,"3","DIZZINESS","","","","","","","","","","","","","MILD","N","DOSE NOT CHANGED","POSSIBLY RELATED","RECOVERED/RESOLVED","N","N","N","N","N","N","N","TREATMENT","2013-02-02","2013-02-02",58,58,"",""],[49,"CDISCPILOT01","AE","CDISC011",4,"4","INJECTION SITE REACTION","","","","","","","","","","","","","MILD","N","DOSE NOT CHANGED","RELATED","RECOVERED/RESOLVED","N","N","N","N","N","N","N","TREATMENT","2013-04-10","2013-06-05",125,181,"",""],[50,"CDISCPILOT01","AE","CDISC013",1,"1","MYOCARDIAL INFARCTION","","","","","","","","","","","","","SEVERE","Y","DRUG WITHDRAWN","POSSIBLY RELATED","FATAL","N","N","N","Y","Y","Y","N","TREATMENT","2013-08-02","2013-08-02",12,12,"",""],[51,"CDISCPILOT01","AE","CDISC014",1,"1","INJECTION SITE REACTION","","","","","","","","","","","","","MODERATE","N","DOSE NOT CHANGED","RELATED","RECOVERED/RESOLVED","N","N","N","N","N","N","N","TREATMENT","2013-04-16","2013-05-02",14,30,"",""],[52,"CDISCPILOT01","AE","CDISC014",2,"2","NASOPHARYNGITIS","","","","","","","","","","","","","MODERATE","N","DRUG WITHDRAWN","NOT RELATED","NOT RECOVERED/NOT RESOLVED","N","N","N","N","N","N","N","TREATMENT","2013-04-27","",25,null,"ONGOING","2013-09-18"],[53,"CDISCPILOT01","AE","CDISC016",1,"1","PARAESTHESIA ORAL","","","","","","","","","","","","","MILD","N","DOSE NOT CHANGED","POSSIBLY RELATED","NOT RECOVERED/NOT RESOLVED","N","N","N","N","N","N","N","TREATMENT","2013-04-11","",9,null,"ONGOING","2013-09-22"],[54,"CDISCPILOT01","AE","CDISC016",2,"2","NASOPHARYNGITIS","","","","","","","","","","","","","SEVERE","N","DOSE NOT CHANGED","NOT RELATED","RECOVERED/RESOLVED","N","N","N","N","N","N","N","TREATMENT","2013-04-28","2013-05-11",26,39,"",""],[55,"CDISCPILOT01","AE","CDISC016",3,"3","SUPRAVENTRICULAR EXTRASYSTOLES","","","","","","","","","","","","","MILD","N","DOSE NOT CHANGED","POSSIBLY RELATED","RECOVERED/RESOLVED","N","N","N","N","N","N","N","TREATMENT","2013-04-29","2013-05-15",27,43,"",""],[56,"CDISCPILOT01","AE","CDISC016",4,"4","RASH PRURITIC","","","","","","","","","","","","","MODERATE","N","DOSE NOT CHANGED","RELATED","RECOVERED/RESOLVED","N","N","N","N","N","N","N","TREATMENT","2013-05-27","2013-05-31",55,59,"",""],[57,"CDISCPILOT01","AE","CDISC016",5,"5","VENTRICULAR EXTRASYSTOLES","","","","","","","","","","","","","MODERATE","N","DOSE NOT CHANGED","RELATED","RECOVERED/RESOLVED","N","N","N","N","N","N","N","TREATMENT","2013-05-28","2013-06-01",56,60,"",""],[58,"CDISCPILOT01","AE","CDISC016",6,"6","CONJUNCTIVAL HAEMORRHAGE","","","","","","","","","","","","","MODERATE","N","DRUG WITHDRAWN","UNLIKELY RELATED","NOT RECOVERED/NOT RESOLVED","N","N","N","N","N","N","N","TREATMENT","2013-05-30","",58,null,"ONGOING","2013-09-22"],[59,"CDISCPILOT01","AE","CDISC016",7,"7","CERUMEN IMPACTION","","","","","","","","","","","","","MILD","N","DOSE NOT CHANGED","NOT RELATED","NOT RECOVERED/NOT RESOLVED","N","N","N","N","N","N","N","TREATMENT","2013-06-01","",60,null,"ONGOING","2013-09-22"],[60,"CDISCPILOT01","AE","CDISC017",1,"1","FALL","","","","","","","","","","","","","MILD","N","DOSE NOT CHANGED","UNLIKELY RELATED","RECOVERED/RESOLVED","N","N","N","N","N","N","N","TREATMENT","2013-10-09","2013-10-09",19,19,"",""],[61,"CDISCPILOT01","AE","CDISC017",2,"2","BALANCE DISORDER","","","","","","","","","","","","","MODERATE","N","DOSE NOT CHANGED","POSSIBLY RELATED","RECOVERED/RESOLVED","N","N","N","N","N","N","N","TREATMENT","2013-10-09","2013-11-15",19,56,"",""],[62,"CDISCPILOT01","AE","CDISC017",3,"3","CONTUSION","","","","","","","","","","","","","MODERATE","N","DOSE NOT CHANGED","UNLIKELY RELATED","RECOVERED/RESOLVED","N","N","N","N","N","N","N","TREATMENT","2013-10-15","2013-11-02",25,43,"",""],[63,"CDISCPILOT01","AE","CDISC017",4,"4","COORDINATION ABNORMAL","","","","","","","","","","","","","MILD","N","DOSE NOT CHANGED","POSSIBLY RELATED","RECOVERED/RESOLVED","N","N","N","N","N","N","N","TREATMENT","2013-11-15","2013-11-15",56,56,"",""],[64,"CDISCPILOT01","AE","CDISC017",5,"5","INJECTION SITE REACTION","","","","","","","","","","","","","MODERATE","N","DRUG WITHDRAWN","RELATED","RECOVERED/RESOLVED","N","N","N","N","N","N","N","TREATMENT","2013-12-29","2014-02-19",100,152,"",""],[65,"CDISCPILOT01","AE","CDISC018",1,"1","BACK PAIN","","","","","","","","","","","","","MILD","N","DOSE NOT CHANGED","NOT RELATED","RECOVERED/RESOLVED","N","N","N","N","N","N","N","TREATMENT","2012-12-18","2012-12-18",2,2,"",""],[66,"CDISCPILOT01","AE","CDISC018",2,"2","NAUSEA","","","","","","","","","","","","","MODERATE","N","DOSE NOT CHANGED","UNLIKELY RELATED","RECOVERED/RESOLVED","N","N","N","N","N","N","N","TREATMENT","2012-12-26","2012-12-26",10,10,"",""],[67,"CDISCPILOT01","AE","CDISC018",3,"3","AMNESIA","","","","","","","","","","","","","MILD","N","DOSE NOT CHANGED","NOT RELATED","RECOVERED/RESOLVED","N","N","N","N","N","N","N","TREATMENT","2013-01-01","2013-01-19",16,34,"",""],[68,"CDISCPILOT01","AE","CDISC018",4,"4","NAUSEA","","","","","","","","","","","","","MODERATE","N","DOSE NOT CHANGED","POSSIBLY RELATED","RECOVERED/RESOLVED","N","N","N","N","N","N","N","TREATMENT","2013-01-03","2013-01-09",18,24,"",""],[69,"CDISCPILOT01","AE","CDISC018",5,"5","LETHARGY","","","","","","","","","","","","","MODERATE","N","DOSE NOT CHANGED","POSSIBLY RELATED","RECOVERED/RESOLVED","N","N","N","N","N","N","N","TREATMENT","2013-01-05","2013-01-05",20,20,"",""],[70,"CDISCPILOT01","AE","CDISC018",6,"6","NAUSEA","","","","","","","","","","","","","MODERATE","N","DOSE NOT CHANGED","POSSIBLY RELATED","RECOVERED/RESOLVED","N","N","N","N","N","N","N","TREATMENT","2013-01-16","2013-01-16",31,31,"",""],[71,"CDISCPILOT01","AE","CDISC018",7,"7","NAUSEA","","","","","","","","","","","","","SEVERE","N","DOSE NOT CHANGED","RELATED","RECOVERED/RESOLVED","N","N","N","N","N","N","N","TREATMENT","2013-01-21","2013-01-24",36,39,"",""],[72,"CDISCPILOT01","AE","CDISC018",8,"8","INJECTION SITE REACTION","","","","","","","","","","","","","MODERATE","N","DOSE NOT CHANGED","RELATED","RECOVERED/RESOLVED","N","N","N","N","N","N","N","TREATMENT","2013-01-27","2013-01-28",42,43,"",""],[73,"CDISCPILOT01","AE","CDISC018",9,"9","DECREASED APPETITE","","","","","","","","","","","","","MODERATE","N","DOSE NOT CHANGED","POSSIBLY RELATED","RECOVERED/RESOLVED","N","N","N","N","N","N","N","TREATMENT","2013-02-04","2013-02-25",50,71,"",""],[74,"CDISCPILOT01","AE","CDISC018",10,"10","NAUSEA","","","","","","","","","","","","","MODERATE","N","DOSE NOT CHANGED","POSSIBLY RELATED","RECOVERED/RESOLVED","N","N","N","N","N","N","N","TREATMENT","2013-02-04","2013-02-25",50,71,"",""]]}