{"datasetJSONCreationDateTime":"2024-07-30T16:40:30","datasetJSONVersion":"1.1.0","fileOID":"www.cdisc.org/StudyMSGv2/1/Define-XML_2.1.0/2024-07-30/dd","dbLastModifiedDateTime":"2020-08-21T09:14:25","originator":"CDISC SDTM MSG Team","sourceSystem":{"name":"SAS on DESKTOP-K9AB6GC","version":"9.04.01M7P08052020"},"studyOID":"cdisc.com/CDISCPILOT01","metaDataVersionOID":"MDV.MSGv2.0.SDTMIG.3.3.SDTM.1.7","metaDataRef":"define.xml","itemGroupOID":"IG.DD","records":3,"name":"DD","label":"Death Details","columns":[{"itemOID":"ITEMGROUPDATASEQ","name":"ITEMGROUPDATASEQ","label":"Record Identifier","dataType":"integer"},{"itemOID":"IT.DD.STUDYID","name":"STUDYID","label":"Study Identifier","dataType":"string","length":12,"keySequence":1},{"itemOID":"IT.DD.DOMAIN","name":"DOMAIN","label":"Domain Abbreviation","dataType":"string","length":2},{"itemOID":"IT.DD.USUBJID","name":"USUBJID","label":"Unique Subject Identifier","dataType":"string","length":8,"keySequence":2},{"itemOID":"IT.DD.DDSEQ","name":"DDSEQ","label":"Sequence Number","dataType":"integer"},{"itemOID":"IT.DD.DDLNKID","name":"DDLNKID","label":"Link ID","dataType":"string","length":50},{"itemOID":"IT.DD.DDTESTCD","name":"DDTESTCD","label":"Death Detail Assessment Short Name","dataType":"string","length":6,"keySequence":3},{"itemOID":"IT.DD.DDTEST","name":"DDTEST","label":"Death Detail Assessment Name","dataType":"string","length":22},{"itemOID":"IT.DD.DDORRES","name":"DDORRES","label":"Result or Finding as Collected","dataType":"string","length":200},{"itemOID":"IT.DD.DDSTRESC","name":"DDSTRESC","label":"Character Result/Finding in Std Format","dataType":"string","length":200},{"itemOID":"IT.DD.EPOCH","name":"EPOCH","label":"Epoch","dataType":"string","length":9},{"itemOID":"IT.DD.DDDTC","name":"DDDTC","label":"Date/Time of Collection","dataType":"date"},{"itemOID":"IT.DD.DDDY","name":"DDDY","label":"Study Day of Collection","dataType":"integer"}],"rows":[[1,"CDISCPILOT01","DD","CDISC002",1,"9","PRCDTH","Primary Cause of Death","SUDDEN DEATH","SUDDEN DEATH","TREATMENT","2013-01-14",61],[2,"CDISCPILOT01","DD","CDISC008",1,"1","PRCDTH","Primary Cause of Death","COMPLETED SUICIDE","COMPLETED SUICIDE","TREATMENT","2014-11-01",175],[3,"CDISCPILOT01","DD","CDISC013",1,"1","PRCDTH","Primary Cause of Death","MYOCARDIAL INFARCTION","MYOCARDIAL INFARCTION","TREATMENT","2013-08-03",13]]}