{"datasetJSONCreationDateTime":"2024-07-30T16:40:32","datasetJSONVersion":"1.1.0","fileOID":"www.cdisc.org/StudyMSGv2/1/Define-XML_2.1.0/2024-07-30/qssl","dbLastModifiedDateTime":"2020-08-21T09:14:28","originator":"CDISC SDTM MSG Team","sourceSystem":{"name":"SAS on DESKTOP-K9AB6GC","version":"9.04.01M7P08052020"},"studyOID":"cdisc.com/CDISCPILOT01","metaDataVersionOID":"MDV.MSGv2.0.SDTMIG.3.3.SDTM.1.7","metaDataRef":"define.xml","itemGroupOID":"IG.QSSL","records":135,"name":"QSSL","label":"Questionnaires (SQLS)","columns":[{"itemOID":"ITEMGROUPDATASEQ","name":"ITEMGROUPDATASEQ","label":"Record Identifier","dataType":"integer"},{"itemOID":"IT.QSSL.STUDYID","name":"STUDYID","label":"Study Identifier","dataType":"string","length":12,"keySequence":1},{"itemOID":"IT.QSSL.DOMAIN","name":"DOMAIN","label":"Domain Abbreviation","dataType":"string","length":4},{"itemOID":"IT.QSSL.USUBJID","name":"USUBJID","label":"Unique Subject Identifier","dataType":"string","length":8,"keySequence":2},{"itemOID":"IT.QSSL.QSSEQ","name":"QSSEQ","label":"Sequence Number","dataType":"integer"},{"itemOID":"IT.QSSL.QSTESTCD","name":"QSTESTCD","label":"Question Short Name","dataType":"string","length":8,"keySequence":3},{"itemOID":"IT.QSSL.QSTEST","name":"QSTEST","label":"Question Name","dataType":"string","length":39},{"itemOID":"IT.QSSL.QSCAT","name":"QSCAT","label":"Category of Question","dataType":"string","length":4},{"itemOID":"IT.QSSL.QSORRES","name":"QSORRES","label":"Finding in Original Units","dataType":"string","length":26},{"itemOID":"IT.QSSL.QSSTRESC","name":"QSSTRESC","label":"Character Result/Finding in Std Format","dataType":"string","length":1},{"itemOID":"IT.QSSL.QSSTRESN","name":"QSSTRESN","label":"Numeric Finding in Standard Units","dataType":"integer"},{"itemOID":"IT.QSSL.QSLOBXFL","name":"QSLOBXFL","label":"Last Observation Before Exposure Flag","dataType":"string","length":1},{"itemOID":"IT.QSSL.VISITNUM","name":"VISITNUM","label":"Visit Number","dataType":"float","keySequence":4},{"itemOID":"IT.QSSL.VISIT","name":"VISIT","label":"Visit Name","dataType":"string","length":200},{"itemOID":"IT.QSSL.EPOCH","name":"EPOCH","label":"Epoch","dataType":"string","length":9},{"itemOID":"IT.QSSL.QSDTC","name":"QSDTC","label":"Date/Time of Finding","dataType":"date"},{"itemOID":"IT.QSSL.QSDY","name":"QSDY","label":"Study Day of Finding","dataType":"integer"}],"rows":[[1,"CDISCPILOT01","QS","CDISC001",12,"SWLS0101","SWLS01-My Life is Close to Ideal","SWLS","Slightly agree","5",5,"Y",3,"BASELINE","SCREENING","2012-11-30",1],[2,"CDISCPILOT01","QS","CDISC001",13,"SWLS0102","SWLS01-My Life Conditions are Excellent","SWLS","Agree","6",6,"Y",3,"BASELINE","SCREENING","2012-11-30",1],[3,"CDISCPILOT01","QS","CDISC001",14,"SWLS0103","SWLS01-I Am Satisfied with My Life","SWLS","Neither agree nor disagree","4",4,"Y",3,"BASELINE","SCREENING","2012-11-30",1],[4,"CDISCPILOT01","QS","CDISC001",15,"SWLS0104","SWLS01-Have Gotten Important Things","SWLS","Agree","6",6,"Y",3,"BASELINE","SCREENING","2012-11-30",1],[5,"CDISCPILOT01","QS","CDISC001",16,"SWLS0105","SWLS01-Live Life Over Change Nothing","SWLS","Agree","6",6,"Y",3,"BASELINE","SCREENING","2012-11-30",1],[6,"CDISCPILOT01","QS","CDISC001",28,"SWLS0101","SWLS01-My Life is Close to Ideal","SWLS","Agree","6",6,"",201,"EARLY DISCONTINUATION RETRIEVAL","TREATMENT","2013-05-20",172],[7,"CDISCPILOT01","QS","CDISC001",29,"SWLS0102","SWLS01-My Life Conditions are Excellent","SWLS","Agree","6",6,"",201,"EARLY DISCONTINUATION RETRIEVAL","TREATMENT","2013-05-20",172],[8,"CDISCPILOT01","QS","CDISC001",30,"SWLS0103","SWLS01-I Am Satisfied with My Life","SWLS","Slightly agree","5",5,"",201,"EARLY DISCONTINUATION RETRIEVAL","TREATMENT","2013-05-20",172],[9,"CDISCPILOT01","QS","CDISC001",31,"SWLS0104","SWLS01-Have Gotten Important Things","SWLS","Agree","6",6,"",201,"EARLY DISCONTINUATION RETRIEVAL","TREATMENT","2013-05-20",172],[10,"CDISCPILOT01","QS","CDISC001",32,"SWLS0105","SWLS01-Live Life Over Change Nothing","SWLS","Agree","6",6,"",201,"EARLY DISCONTINUATION RETRIEVAL","TREATMENT","2013-05-20",172],[11,"CDISCPILOT01","QS","CDISC002",12,"SWLS0101","SWLS01-My Life is Close to Ideal","SWLS","Neither agree nor disagree","4",4,"Y",3,"BASELINE","SCREENING","2012-11-15",1],[12,"CDISCPILOT01","QS","CDISC002",13,"SWLS0102","SWLS01-My Life Conditions are Excellent","SWLS","Slightly disagree","3",3,"Y",3,"BASELINE","SCREENING","2012-11-15",1],[13,"CDISCPILOT01","QS","CDISC002",14,"SWLS0103","SWLS01-I Am Satisfied with My Life","SWLS","Neither agree nor disagree","4",4,"Y",3,"BASELINE","SCREENING","2012-11-15",1],[14,"CDISCPILOT01","QS","CDISC002",15,"SWLS0104","SWLS01-Have Gotten Important Things","SWLS","Neither agree nor disagree","4",4,"Y",3,"BASELINE","SCREENING","2012-11-15",1],[15,"CDISCPILOT01","QS","CDISC002",16,"SWLS0105","SWLS01-Live Life Over Change Nothing","SWLS","Neither agree nor disagree","4",4,"Y",3,"BASELINE","SCREENING","2012-11-15",1],[16,"CDISCPILOT01","QS","CDISC003",12,"SWLS0101","SWLS01-My Life is Close to Ideal","SWLS","Neither agree nor disagree","4",4,"Y",3,"BASELINE","SCREENING","2013-08-29",1],[17,"CDISCPILOT01","QS","CDISC003",13,"SWLS0102","SWLS01-My Life Conditions are Excellent","SWLS","Slightly agree","5",5,"Y",3,"BASELINE","SCREENING","2013-08-29",1],[18,"CDISCPILOT01","QS","CDISC003",14,"SWLS0103","SWLS01-I Am Satisfied with My Life","SWLS","Agree","6",6,"Y",3,"BASELINE","SCREENING","2013-08-29",1],[19,"CDISCPILOT01","QS","CDISC003",15,"SWLS0104","SWLS01-Have Gotten Important Things","SWLS","Slightly agree","5",5,"Y",3,"BASELINE","SCREENING","2013-08-29",1],[20,"CDISCPILOT01","QS","CDISC003",16,"SWLS0105","SWLS01-Live Life Over Change Nothing","SWLS","Agree","6",6,"Y",3,"BASELINE","SCREENING","2013-08-29",1],[21,"CDISCPILOT01","QS","CDISC003",28,"SWLS0101","SWLS01-My Life is Close to Ideal","SWLS","Slightly agree","5",5,"",9,"WEEK 12","TREATMENT","2013-11-05",69],[22,"CDISCPILOT01","QS","CDISC003",29,"SWLS0102","SWLS01-My Life Conditions are Excellent","SWLS","Slightly agree","5",5,"",9,"WEEK 12","TREATMENT","2013-11-05",69],[23,"CDISCPILOT01","QS","CDISC003",30,"SWLS0103","SWLS01-I Am Satisfied with My Life","SWLS","Agree","6",6,"",9,"WEEK 12","TREATMENT","2013-11-05",69],[24,"CDISCPILOT01","QS","CDISC003",31,"SWLS0104","SWLS01-Have Gotten Important Things","SWLS","Slightly agree","5",5,"",9,"WEEK 12","TREATMENT","2013-11-05",69],[25,"CDISCPILOT01","QS","CDISC003",32,"SWLS0105","SWLS01-Live Life Over Change Nothing","SWLS","Agree","6",6,"",9,"WEEK 12","TREATMENT","2013-11-05",69],[26,"CDISCPILOT01","QS","CDISC003",44,"SWLS0101","SWLS01-My Life is Close to Ideal","SWLS","Slightly agree","5",5,"",201,"EARLY DISCONTINUATION RETRIEVAL","TREATMENT","2014-02-13",169],[27,"CDISCPILOT01","QS","CDISC003",45,"SWLS0102","SWLS01-My Life Conditions are Excellent","SWLS","Slightly agree","5",5,"",201,"EARLY DISCONTINUATION RETRIEVAL","TREATMENT","2014-02-13",169],[28,"CDISCPILOT01","QS","CDISC003",46,"SWLS0103","SWLS01-I Am Satisfied with My Life","SWLS","Agree","6",6,"",201,"EARLY DISCONTINUATION RETRIEVAL","TREATMENT","2014-02-13",169],[29,"CDISCPILOT01","QS","CDISC003",47,"SWLS0104","SWLS01-Have Gotten Important Things","SWLS","Slightly agree","5",5,"",201,"EARLY DISCONTINUATION RETRIEVAL","TREATMENT","2014-02-13",169],[30,"CDISCPILOT01","QS","CDISC003",48,"SWLS0105","SWLS01-Live Life Over Change Nothing","SWLS","Agree","6",6,"",201,"EARLY DISCONTINUATION RETRIEVAL","TREATMENT","2014-02-13",169],[31,"CDISCPILOT01","QS","CDISC004",12,"SWLS0101","SWLS01-My Life is Close to Ideal","SWLS","Disagree","2",2,"Y",3,"BASELINE","SCREENING","2013-10-08",1],[32,"CDISCPILOT01","QS","CDISC004",13,"SWLS0102","SWLS01-My Life Conditions are Excellent","SWLS","Slightly disagree","3",3,"Y",3,"BASELINE","SCREENING","2013-10-08",1],[33,"CDISCPILOT01","QS","CDISC004",14,"SWLS0103","SWLS01-I Am Satisfied with My Life","SWLS","Neither agree nor disagree","4",4,"Y",3,"BASELINE","SCREENING","2013-10-08",1],[34,"CDISCPILOT01","QS","CDISC004",15,"SWLS0104","SWLS01-Have Gotten Important Things","SWLS","Slightly disagree","3",3,"Y",3,"BASELINE","SCREENING","2013-10-08",1],[35,"CDISCPILOT01","QS","CDISC004",16,"SWLS0105","SWLS01-Live Life Over Change Nothing","SWLS","Slightly disagree","3",3,"Y",3,"BASELINE","SCREENING","2013-10-08",1],[36,"CDISCPILOT01","QS","CDISC007",12,"SWLS0101","SWLS01-My Life is Close to Ideal","SWLS","Neither agree nor disagree","4",4,"Y",3,"BASELINE","SCREENING","2013-01-05",1],[37,"CDISCPILOT01","QS","CDISC007",13,"SWLS0102","SWLS01-My Life Conditions are Excellent","SWLS","Slightly agree","5",5,"Y",3,"BASELINE","SCREENING","2013-01-05",1],[38,"CDISCPILOT01","QS","CDISC007",14,"SWLS0103","SWLS01-I Am Satisfied with My Life","SWLS","Agree","6",6,"Y",3,"BASELINE","SCREENING","2013-01-05",1],[39,"CDISCPILOT01","QS","CDISC007",15,"SWLS0104","SWLS01-Have Gotten Important Things","SWLS","Agree","6",6,"Y",3,"BASELINE","SCREENING","2013-01-05",1],[40,"CDISCPILOT01","QS","CDISC007",16,"SWLS0105","SWLS01-Live Life Over Change Nothing","SWLS","Slightly agree","5",5,"Y",3,"BASELINE","SCREENING","2013-01-05",1],[41,"CDISCPILOT01","QS","CDISC008",12,"SWLS0101","SWLS01-My Life is Close to Ideal","SWLS","Slightly agree","5",5,"Y",3,"BASELINE","SCREENING","2014-05-11",1],[42,"CDISCPILOT01","QS","CDISC008",13,"SWLS0102","SWLS01-My Life Conditions are Excellent","SWLS","Agree","6",6,"Y",3,"BASELINE","SCREENING","2014-05-11",1],[43,"CDISCPILOT01","QS","CDISC008",14,"SWLS0103","SWLS01-I Am Satisfied with My Life","SWLS","Slightly agree","5",5,"Y",3,"BASELINE","SCREENING","2014-05-11",1],[44,"CDISCPILOT01","QS","CDISC008",15,"SWLS0104","SWLS01-Have Gotten Important Things","SWLS","Slightly agree","5",5,"Y",3,"BASELINE","SCREENING","2014-05-11",1],[45,"CDISCPILOT01","QS","CDISC008",16,"SWLS0105","SWLS01-Live Life Over Change Nothing","SWLS","Slightly agree","5",5,"Y",3,"BASELINE","SCREENING","2014-05-11",1],[46,"CDISCPILOT01","QS","CDISC008",28,"SWLS0101","SWLS01-My Life is Close to Ideal","SWLS","Slightly agree","5",5,"",10,"WEEK 16","TREATMENT","2014-09-03",116],[47,"CDISCPILOT01","QS","CDISC008",29,"SWLS0102","SWLS01-My Life Conditions are Excellent","SWLS","Agree","6",6,"",10,"WEEK 16","TREATMENT","2014-09-03",116],[48,"CDISCPILOT01","QS","CDISC008",30,"SWLS0103","SWLS01-I Am Satisfied with My Life","SWLS","Slightly agree","5",5,"",10,"WEEK 16","TREATMENT","2014-09-03",116],[49,"CDISCPILOT01","QS","CDISC008",31,"SWLS0104","SWLS01-Have Gotten Important Things","SWLS","Slightly agree","5",5,"",10,"WEEK 16","TREATMENT","2014-09-03",116],[50,"CDISCPILOT01","QS","CDISC008",32,"SWLS0105","SWLS01-Live Life Over Change Nothing","SWLS","Slightly agree","5",5,"",10,"WEEK 16","TREATMENT","2014-09-03",116],[51,"CDISCPILOT01","QS","CDISC009",12,"SWLS0101","SWLS01-My Life is Close to Ideal","SWLS","Slightly disagree","3",3,"Y",3,"BASELINE","SCREENING","2012-10-22",1],[52,"CDISCPILOT01","QS","CDISC009",13,"SWLS0102","SWLS01-My Life Conditions are Excellent","SWLS","Neither agree nor disagree","4",4,"Y",3,"BASELINE","SCREENING","2012-10-22",1],[53,"CDISCPILOT01","QS","CDISC009",14,"SWLS0103","SWLS01-I Am Satisfied with My Life","SWLS","Slightly agree","5",5,"Y",3,"BASELINE","SCREENING","2012-10-22",1],[54,"CDISCPILOT01","QS","CDISC009",15,"SWLS0104","SWLS01-Have Gotten Important Things","SWLS","Neither agree nor disagree","4",4,"Y",3,"BASELINE","SCREENING","2012-10-22",1],[55,"CDISCPILOT01","QS","CDISC009",16,"SWLS0105","SWLS01-Live Life Over Change Nothing","SWLS","Agree","6",6,"Y",3,"BASELINE","SCREENING","2012-10-22",1],[56,"CDISCPILOT01","QS","CDISC009",28,"SWLS0101","SWLS01-My Life is Close to Ideal","SWLS","Slightly disagree","3",3,"",10,"WEEK 16","TREATMENT","2013-02-16",118],[57,"CDISCPILOT01","QS","CDISC009",29,"SWLS0102","SWLS01-My Life Conditions are Excellent","SWLS","Neither agree nor disagree","4",4,"",10,"WEEK 16","TREATMENT","2013-02-16",118],[58,"CDISCPILOT01","QS","CDISC009",30,"SWLS0103","SWLS01-I Am Satisfied with My Life","SWLS","Slightly agree","5",5,"",10,"WEEK 16","TREATMENT","2013-02-16",118],[59,"CDISCPILOT01","QS","CDISC009",31,"SWLS0104","SWLS01-Have Gotten Important Things","SWLS","Slightly agree","5",5,"",10,"WEEK 16","TREATMENT","2013-02-16",118],[60,"CDISCPILOT01","QS","CDISC009",32,"SWLS0105","SWLS01-Live Life Over Change Nothing","SWLS","Agree","6",6,"",10,"WEEK 16","TREATMENT","2013-02-16",118],[61,"CDISCPILOT01","QS","CDISC009",44,"SWLS0101","SWLS01-My Life is Close to Ideal","SWLS","Slightly disagree","3",3,"",12,"WEEK 24","TREATMENT","2013-04-10",171],[62,"CDISCPILOT01","QS","CDISC009",45,"SWLS0102","SWLS01-My Life Conditions are Excellent","SWLS","Neither agree nor disagree","4",4,"",12,"WEEK 24","TREATMENT","2013-04-10",171],[63,"CDISCPILOT01","QS","CDISC009",46,"SWLS0103","SWLS01-I Am Satisfied with My Life","SWLS","Slightly agree","5",5,"",12,"WEEK 24","TREATMENT","2013-04-10",171],[64,"CDISCPILOT01","QS","CDISC009",47,"SWLS0104","SWLS01-Have Gotten Important Things","SWLS","Slightly agree","5",5,"",12,"WEEK 24","TREATMENT","2013-04-10",171],[65,"CDISCPILOT01","QS","CDISC009",48,"SWLS0105","SWLS01-Live Life Over Change Nothing","SWLS","Agree","6",6,"",12,"WEEK 24","TREATMENT","2013-04-10",171],[66,"CDISCPILOT01","QS","CDISC011",12,"SWLS0101","SWLS01-My Life is Close to Ideal","SWLS","Slightly disagree","3",3,"",3,"BASELINE","SCREENING","2012-12-07",1],[67,"CDISCPILOT01","QS","CDISC011",13,"SWLS0102","SWLS01-My Life Conditions are Excellent","SWLS","Neither agree nor disagree","4",4,"",3,"BASELINE","SCREENING","2012-12-07",1],[68,"CDISCPILOT01","QS","CDISC011",14,"SWLS0103","SWLS01-I Am Satisfied with My Life","SWLS","Neither agree nor disagree","4",4,"",3,"BASELINE","SCREENING","2012-12-07",1],[69,"CDISCPILOT01","QS","CDISC011",15,"SWLS0104","SWLS01-Have Gotten Important Things","SWLS","Slightly disagree","3",3,"",3,"BASELINE","SCREENING","2012-12-07",1],[70,"CDISCPILOT01","QS","CDISC011",16,"SWLS0105","SWLS01-Live Life Over Change Nothing","SWLS","Neither agree nor disagree","4",4,"",3,"BASELINE","SCREENING","2012-12-07",1],[71,"CDISCPILOT01","QS","CDISC011",39,"SWLS0101","SWLS01-My Life is Close to Ideal","SWLS","Slightly disagree","3",3,"",12,"WEEK 24","TREATMENT","2013-05-22",167],[72,"CDISCPILOT01","QS","CDISC011",40,"SWLS0102","SWLS01-My Life Conditions are Excellent","SWLS","Neither agree nor disagree","4",4,"",12,"WEEK 24","TREATMENT","2013-05-22",167],[73,"CDISCPILOT01","QS","CDISC011",41,"SWLS0103","SWLS01-I Am Satisfied with My Life","SWLS","Neither agree nor disagree","4",4,"",12,"WEEK 24","TREATMENT","2013-05-22",167],[74,"CDISCPILOT01","QS","CDISC011",42,"SWLS0104","SWLS01-Have Gotten Important Things","SWLS","Slightly disagree","3",3,"",12,"WEEK 24","TREATMENT","2013-05-22",167],[75,"CDISCPILOT01","QS","CDISC011",43,"SWLS0105","SWLS01-Live Life Over Change Nothing","SWLS","Neither agree nor disagree","4",4,"",12,"WEEK 24","TREATMENT","2013-05-22",167],[76,"CDISCPILOT01","QS","CDISC012",12,"SWLS0101","SWLS01-My Life is Close to Ideal","SWLS","Agree","6",6,"Y",3,"BASELINE","SCREENING","2013-09-03",1],[77,"CDISCPILOT01","QS","CDISC012",13,"SWLS0102","SWLS01-My Life Conditions are Excellent","SWLS","Slightly agree","5",5,"Y",3,"BASELINE","SCREENING","2013-09-03",1],[78,"CDISCPILOT01","QS","CDISC012",14,"SWLS0103","SWLS01-I Am Satisfied with My Life","SWLS","Strongly agree","7",7,"Y",3,"BASELINE","SCREENING","2013-09-03",1],[79,"CDISCPILOT01","QS","CDISC012",15,"SWLS0104","SWLS01-Have Gotten Important Things","SWLS","Slightly agree","5",5,"Y",3,"BASELINE","SCREENING","2013-09-03",1],[80,"CDISCPILOT01","QS","CDISC012",16,"SWLS0105","SWLS01-Live Life Over Change Nothing","SWLS","Agree","6",6,"Y",3,"BASELINE","SCREENING","2013-09-03",1],[81,"CDISCPILOT01","QS","CDISC014",12,"SWLS0101","SWLS01-My Life is Close to Ideal","SWLS","Agree","6",6,"Y",3,"BASELINE","SCREENING","2013-04-03",1],[82,"CDISCPILOT01","QS","CDISC014",13,"SWLS0102","SWLS01-My Life Conditions are Excellent","SWLS","Strongly agree","7",7,"Y",3,"BASELINE","SCREENING","2013-04-03",1],[83,"CDISCPILOT01","QS","CDISC014",14,"SWLS0103","SWLS01-I Am Satisfied with My Life","SWLS","Agree","6",6,"Y",3,"BASELINE","SCREENING","2013-04-03",1],[84,"CDISCPILOT01","QS","CDISC014",15,"SWLS0104","SWLS01-Have Gotten Important Things","SWLS","Slightly agree","5",5,"Y",3,"BASELINE","SCREENING","2013-04-03",1],[85,"CDISCPILOT01","QS","CDISC014",16,"SWLS0105","SWLS01-Live Life Over Change Nothing","SWLS","Agree","6",6,"Y",3,"BASELINE","SCREENING","2013-04-03",1],[86,"CDISCPILOT01","QS","CDISC014",28,"SWLS0101","SWLS01-My Life is Close to Ideal","SWLS","Agree","6",6,"",201,"EARLY DISCONTINUATION RETRIEVAL","TREATMENT","2013-09-18",169],[87,"CDISCPILOT01","QS","CDISC014",29,"SWLS0102","SWLS01-My Life Conditions are Excellent","SWLS","Strongly agree","7",7,"",201,"EARLY DISCONTINUATION RETRIEVAL","TREATMENT","2013-09-18",169],[88,"CDISCPILOT01","QS","CDISC014",30,"SWLS0103","SWLS01-I Am Satisfied with My Life","SWLS","Agree","6",6,"",201,"EARLY DISCONTINUATION RETRIEVAL","TREATMENT","2013-09-18",169],[89,"CDISCPILOT01","QS","CDISC014",31,"SWLS0104","SWLS01-Have Gotten Important Things","SWLS","Slightly agree","5",5,"",201,"EARLY DISCONTINUATION RETRIEVAL","TREATMENT","2013-09-18",169],[90,"CDISCPILOT01","QS","CDISC014",32,"SWLS0105","SWLS01-Live Life Over Change Nothing","SWLS","Agree","6",6,"",201,"EARLY DISCONTINUATION RETRIEVAL","TREATMENT","2013-09-18",169],[91,"CDISCPILOT01","QS","CDISC016",12,"SWLS0101","SWLS01-My Life is Close to Ideal","SWLS","Agree","6",6,"Y",3,"BASELINE","SCREENING","2013-04-03",1],[92,"CDISCPILOT01","QS","CDISC016",13,"SWLS0102","SWLS01-My Life Conditions are Excellent","SWLS","Agree","6",6,"Y",3,"BASELINE","SCREENING","2013-04-03",1],[93,"CDISCPILOT01","QS","CDISC016",14,"SWLS0103","SWLS01-I Am Satisfied with My Life","SWLS","Slightly agree","5",5,"Y",3,"BASELINE","SCREENING","2013-04-03",1],[94,"CDISCPILOT01","QS","CDISC016",15,"SWLS0104","SWLS01-Have Gotten Important Things","SWLS","Slightly agree","5",5,"Y",3,"BASELINE","SCREENING","2013-04-03",1],[95,"CDISCPILOT01","QS","CDISC016",16,"SWLS0105","SWLS01-Live Life Over Change Nothing","SWLS","Agree","6",6,"Y",3,"BASELINE","SCREENING","2013-04-03",1],[96,"CDISCPILOT01","QS","CDISC016",28,"SWLS0101","SWLS01-My Life is Close to Ideal","SWLS","Agree","6",6,"",9,"WEEK 12","TREATMENT","2013-06-01",60],[97,"CDISCPILOT01","QS","CDISC016",29,"SWLS0102","SWLS01-My Life Conditions are Excellent","SWLS","Agree","6",6,"",9,"WEEK 12","TREATMENT","2013-06-01",60],[98,"CDISCPILOT01","QS","CDISC016",30,"SWLS0103","SWLS01-I Am Satisfied with My Life","SWLS","Slightly agree","5",5,"",9,"WEEK 12","TREATMENT","2013-06-01",60],[99,"CDISCPILOT01","QS","CDISC016",31,"SWLS0104","SWLS01-Have Gotten Important Things","SWLS","Slightly agree","5",5,"",9,"WEEK 12","TREATMENT","2013-06-01",60],[100,"CDISCPILOT01","QS","CDISC016",32,"SWLS0105","SWLS01-Live Life Over Change Nothing","SWLS","Agree","6",6,"",9,"WEEK 12","TREATMENT","2013-06-01",60],[101,"CDISCPILOT01","QS","CDISC016",44,"SWLS0101","SWLS01-My Life is Close to Ideal","SWLS","Neither agree nor disagree","4",4,"",201,"EARLY DISCONTINUATION RETRIEVAL","TREATMENT","2013-09-22",173],[102,"CDISCPILOT01","QS","CDISC016",45,"SWLS0102","SWLS01-My Life Conditions are Excellent","SWLS","Slightly agree","5",5,"",201,"EARLY DISCONTINUATION RETRIEVAL","TREATMENT","2013-09-22",173],[103,"CDISCPILOT01","QS","CDISC016",46,"SWLS0103","SWLS01-I Am Satisfied with My Life","SWLS","Slightly disagree","3",3,"",201,"EARLY DISCONTINUATION RETRIEVAL","TREATMENT","2013-09-22",173],[104,"CDISCPILOT01","QS","CDISC016",47,"SWLS0104","SWLS01-Have Gotten Important Things","SWLS","Agree","6",6,"",201,"EARLY DISCONTINUATION RETRIEVAL","TREATMENT","2013-09-22",173],[105,"CDISCPILOT01","QS","CDISC016",48,"SWLS0105","SWLS01-Live Life Over Change Nothing","SWLS","Neither agree nor disagree","4",4,"",201,"EARLY DISCONTINUATION RETRIEVAL","TREATMENT","2013-09-22",173],[106,"CDISCPILOT01","QS","CDISC017",12,"SWLS0101","SWLS01-My Life is Close to Ideal","SWLS","Slightly disagree","3",3,"Y",3,"BASELINE","SCREENING","2013-09-21",1],[107,"CDISCPILOT01","QS","CDISC017",13,"SWLS0102","SWLS01-My Life Conditions are Excellent","SWLS","Neither agree nor disagree","4",4,"Y",3,"BASELINE","SCREENING","2013-09-21",1],[108,"CDISCPILOT01","QS","CDISC017",14,"SWLS0103","SWLS01-I Am Satisfied with My Life","SWLS","Slightly disagree","3",3,"Y",3,"BASELINE","SCREENING","2013-09-21",1],[109,"CDISCPILOT01","QS","CDISC017",15,"SWLS0104","SWLS01-Have Gotten Important Things","SWLS","Slightly disagree","3",3,"Y",3,"BASELINE","SCREENING","2013-09-21",1],[110,"CDISCPILOT01","QS","CDISC017",16,"SWLS0105","SWLS01-Live Life Over Change Nothing","SWLS","Slightly disagree","3",3,"Y",3,"BASELINE","SCREENING","2013-09-21",1],[111,"CDISCPILOT01","QS","CDISC017",28,"SWLS0101","SWLS01-My Life is Close to Ideal","SWLS","Slightly disagree","3",3,"",10,"WEEK 16","TREATMENT","2014-01-11",113],[112,"CDISCPILOT01","QS","CDISC017",29,"SWLS0102","SWLS01-My Life Conditions are Excellent","SWLS","Neither agree nor disagree","4",4,"",10,"WEEK 16","TREATMENT","2014-01-11",113],[113,"CDISCPILOT01","QS","CDISC017",30,"SWLS0103","SWLS01-I Am Satisfied with My Life","SWLS","Slightly disagree","3",3,"",10,"WEEK 16","TREATMENT","2014-01-11",113],[114,"CDISCPILOT01","QS","CDISC017",31,"SWLS0104","SWLS01-Have Gotten Important Things","SWLS","Slightly disagree","3",3,"",10,"WEEK 16","TREATMENT","2014-01-11",113],[115,"CDISCPILOT01","QS","CDISC017",32,"SWLS0105","SWLS01-Live Life Over Change Nothing","SWLS","Slightly disagree","3",3,"",10,"WEEK 16","TREATMENT","2014-01-11",113],[116,"CDISCPILOT01","QS","CDISC017",44,"SWLS0101","SWLS01-My Life is Close to Ideal","SWLS","Slightly disagree","3",3,"",11,"WEEK 20","TREATMENT","2014-02-08",141],[117,"CDISCPILOT01","QS","CDISC017",45,"SWLS0102","SWLS01-My Life Conditions are Excellent","SWLS","Neither agree nor disagree","4",4,"",11,"WEEK 20","TREATMENT","2014-02-08",141],[118,"CDISCPILOT01","QS","CDISC017",46,"SWLS0103","SWLS01-I Am Satisfied with My Life","SWLS","Neither agree nor disagree","4",4,"",11,"WEEK 20","TREATMENT","2014-02-08",141],[119,"CDISCPILOT01","QS","CDISC017",47,"SWLS0104","SWLS01-Have Gotten Important Things","SWLS","Slightly disagree","3",3,"",11,"WEEK 20","TREATMENT","2014-02-08",141],[120,"CDISCPILOT01","QS","CDISC017",48,"SWLS0105","SWLS01-Live Life Over Change Nothing","SWLS","Slightly disagree","3",3,"",11,"WEEK 20","TREATMENT","2014-02-08",141],[121,"CDISCPILOT01","QS","CDISC017",60,"SWLS0101","SWLS01-My Life is Close to Ideal","SWLS","Slightly disagree","3",3,"",201,"EARLY DISCONTINUATION RETRIEVAL","TREATMENT","2014-03-08",169],[122,"CDISCPILOT01","QS","CDISC017",61,"SWLS0102","SWLS01-My Life Conditions are Excellent","SWLS","Neither agree nor disagree","4",4,"",201,"EARLY DISCONTINUATION RETRIEVAL","TREATMENT","2014-03-08",169],[123,"CDISCPILOT01","QS","CDISC017",62,"SWLS0103","SWLS01-I Am Satisfied with My Life","SWLS","Neither agree nor disagree","4",4,"",201,"EARLY DISCONTINUATION RETRIEVAL","TREATMENT","2014-03-08",169],[124,"CDISCPILOT01","QS","CDISC017",63,"SWLS0104","SWLS01-Have Gotten Important Things","SWLS","Slightly disagree","3",3,"",201,"EARLY DISCONTINUATION RETRIEVAL","TREATMENT","2014-03-08",169],[125,"CDISCPILOT01","QS","CDISC017",64,"SWLS0105","SWLS01-Live Life Over Change Nothing","SWLS","Slightly disagree","3",3,"",201,"EARLY DISCONTINUATION RETRIEVAL","TREATMENT","2014-03-08",169],[126,"CDISCPILOT01","QS","CDISC018",12,"SWLS0101","SWLS01-My Life is Close to Ideal","SWLS","Neither agree nor disagree","4",4,"Y",3,"BASELINE","SCREENING","2012-12-17",1],[127,"CDISCPILOT01","QS","CDISC018",13,"SWLS0102","SWLS01-My Life Conditions are Excellent","SWLS","Slightly agree","5",5,"Y",3,"BASELINE","SCREENING","2012-12-17",1],[128,"CDISCPILOT01","QS","CDISC018",14,"SWLS0103","SWLS01-I Am Satisfied with My Life","SWLS","Neither agree nor disagree","4",4,"Y",3,"BASELINE","SCREENING","2012-12-17",1],[129,"CDISCPILOT01","QS","CDISC018",15,"SWLS0104","SWLS01-Have Gotten Important Things","SWLS","Agree","6",6,"Y",3,"BASELINE","SCREENING","2012-12-17",1],[130,"CDISCPILOT01","QS","CDISC018",16,"SWLS0105","SWLS01-Live Life Over Change Nothing","SWLS","Slightly agree","5",5,"Y",3,"BASELINE","SCREENING","2012-12-17",1],[131,"CDISCPILOT01","QS","CDISC018",28,"SWLS0101","SWLS01-My Life is Close to Ideal","SWLS","Neither agree nor disagree","4",4,"",201,"EARLY DISCONTINUATION RETRIEVAL","TREATMENT","2013-06-03",169],[132,"CDISCPILOT01","QS","CDISC018",29,"SWLS0102","SWLS01-My Life Conditions are Excellent","SWLS","Slightly agree","5",5,"",201,"EARLY DISCONTINUATION RETRIEVAL","TREATMENT","2013-06-03",169],[133,"CDISCPILOT01","QS","CDISC018",30,"SWLS0103","SWLS01-I Am Satisfied with My Life","SWLS","Neither agree nor disagree","4",4,"",201,"EARLY DISCONTINUATION RETRIEVAL","TREATMENT","2013-06-03",169],[134,"CDISCPILOT01","QS","CDISC018",31,"SWLS0104","SWLS01-Have Gotten Important Things","SWLS","Agree","6",6,"",201,"EARLY DISCONTINUATION RETRIEVAL","TREATMENT","2013-06-03",169],[135,"CDISCPILOT01","QS","CDISC018",32,"SWLS0105","SWLS01-Live Life Over Change Nothing","SWLS","Slightly agree","5",5,"",201,"EARLY DISCONTINUATION RETRIEVAL","TREATMENT","2013-06-03",169]]}