{"fileOID":"www.cdisc.org/StudyMSGv2/1/Define-XML_2.1.0/2023-06-20/suppdm","creationDateTime":"2023-06-20T21:41:54","asOfDateTime":"2023-05-31T00:00:00","datasetJSONVersion":"1.0.0","originator":"CDISC SDTM MSG Team","sourceSystem":"Sponsor System","sourceSystemVersion":"1.0","clinicalData":{"studyOID":"cdisc.com/CDISCPILOT01","metaDataVersionOID":"MDV.MSGv2.0.SDTMIG.3.3.SDTM.1.7","metaDataRef":"file://define.xml","itemGroupData":{"IG.SUPPDM":{"records":3,"name":"SUPPDM","label":"Supplemental Qualifiers for DM","items":[{"OID":"ITEMGROUPDATASEQ","name":"ITEMGROUPDATASEQ","label":"Record Identifier","type":"integer"},{"OID":"IT.SUPPDM.STUDYID","name":"STUDYID","label":"Study Identifier","type":"string","length":12,"keySequence":1},{"OID":"IT.SUPPDM.RDOMAIN","name":"RDOMAIN","label":"Related Domain Abbreviation","type":"string","length":6,"keySequence":2},{"OID":"IT.SUPPDM.USUBJID","name":"USUBJID","label":"Unique Subject Identifier","type":"string","length":8,"keySequence":3},{"OID":"IT.SUPPDM.IDVAR","name":"IDVAR","label":"Identifying Variable","type":"string","length":200,"keySequence":4},{"OID":"IT.SUPPDM.IDVARVAL","name":"IDVARVAL","label":"Identifying Variable Value","type":"string","length":200,"keySequence":5},{"OID":"IT.SUPPDM.QNAM","name":"QNAM","label":"Qualifier Variable Name","type":"string","length":5,"keySequence":6},{"OID":"IT.SUPPDM.QLABEL","name":"QLABEL","label":"Qualifier Variable Label","type":"string","length":40},{"OID":"IT.SUPPDM.QVAL","name":"QVAL","label":"Data Value","type":"string","length":41},{"OID":"IT.SUPPDM.QORIG","name":"QORIG","label":"Origin","type":"string","length":13},{"OID":"IT.SUPPDM.QEVAL","name":"QEVAL","label":"Evaluator","type":"string","length":200}],"itemData":[[1,"CDISCPILOT01","DM","CDISC008","","","RACE1","Race 1","ASIAN","CRF",""],[2,"CDISCPILOT01","DM","CDISC008","","","RACE2","Race 2","BLACK OR AFRICAN AMERICAN","CRF",""],[3,"CDISCPILOT01","DM","CDISC008","","","RACE3","Race 3","WHITE","CRF",""]]}}}}