{"datasetJSONCreationDateTime":"2024-07-30T16:40:34","datasetJSONVersion":"1.1.0","fileOID":"www.cdisc.org/StudyMSGv2/1/Define-XML_2.1.0/2024-07-30/sv","dbLastModifiedDateTime":"2020-08-21T09:14:27","originator":"CDISC SDTM MSG Team","sourceSystem":{"name":"SAS on DESKTOP-K9AB6GC","version":"9.04.01M7P08052020"},"studyOID":"cdisc.com/CDISCPILOT01","metaDataVersionOID":"MDV.MSGv2.0.SDTMIG.3.3.SDTM.1.7","metaDataRef":"define.xml","itemGroupOID":"IG.SV","records":164,"name":"SV","label":"Subject Visits","columns":[{"itemOID":"ITEMGROUPDATASEQ","name":"ITEMGROUPDATASEQ","label":"Record Identifier","dataType":"integer"},{"itemOID":"IT.SV.STUDYID","name":"STUDYID","label":"Study Identifier","dataType":"string","length":12,"keySequence":1},{"itemOID":"IT.SV.DOMAIN","name":"DOMAIN","label":"Domain Abbreviation","dataType":"string","length":2},{"itemOID":"IT.SV.USUBJID","name":"USUBJID","label":"Unique Subject Identifier","dataType":"string","length":8,"keySequence":2},{"itemOID":"IT.SV.VISITNUM","name":"VISITNUM","label":"Visit Number","dataType":"float","keySequence":4},{"itemOID":"IT.SV.VISIT","name":"VISIT","label":"Visit Name","dataType":"string","length":200},{"itemOID":"IT.SV.SVSTDTC","name":"SVSTDTC","label":"Start Date/Time of Visit","dataType":"date","keySequence":3},{"itemOID":"IT.SV.SVENDTC","name":"SVENDTC","label":"End Date/Time of Visit","dataType":"date"},{"itemOID":"IT.SV.SVSTDY","name":"SVSTDY","label":"Study Day of Start of Visit","dataType":"integer"},{"itemOID":"IT.SV.SVENDY","name":"SVENDY","label":"Study Day of End of Visit","dataType":"integer"},{"itemOID":"IT.SV.SVUPDES","name":"SVUPDES","label":"Description of Unplanned Visit","dataType":"string","length":200}],"rows":[[1,"CDISCPILOT01","SV","CDISC001",1,"SCREENING 1","2012-11-23","2012-11-23",-7,-7,""],[2,"CDISCPILOT01","SV","CDISC001",2,"SCREENING 2","2012-11-28","2012-11-28",-2,-2,""],[3,"CDISCPILOT01","SV","CDISC001",3,"BASELINE","2012-11-30","2012-11-30",1,1,""],[4,"CDISCPILOT01","SV","CDISC001",4,"WEEK 2","2012-12-13","2012-12-13",14,14,""],[5,"CDISCPILOT01","SV","CDISC001",5,"WEEK 4","2012-12-26","2012-12-26",27,27,""],[6,"CDISCPILOT01","SV","CDISC001",5.01,"WEEK 4: UNSCHEDULED 01","2012-12-28","2012-12-28",29,29,"UNSCHEDULED LABS"],[7,"CDISCPILOT01","SV","CDISC001",7,"WEEK 6","2013-01-10","2013-01-10",42,42,""],[8,"CDISCPILOT01","SV","CDISC001",8,"WEEK 8","2013-01-23","2013-01-23",55,55,""],[9,"CDISCPILOT01","SV","CDISC001",101,"EARLY DISCONTINUATION","2013-02-14","2013-02-14",77,77,""],[10,"CDISCPILOT01","SV","CDISC001",201,"EARLY DISCONTINUATION RETRIEVAL","2013-05-20","2013-05-20",172,172,""],[11,"CDISCPILOT01","SV","CDISC002",1,"SCREENING 1","2012-10-30","2012-10-30",-16,-16,""],[12,"CDISCPILOT01","SV","CDISC002",2,"SCREENING 2","2012-11-14","2012-11-14",-1,-1,""],[13,"CDISCPILOT01","SV","CDISC002",3,"BASELINE","2012-11-15","2012-11-15",1,1,""],[14,"CDISCPILOT01","SV","CDISC002",4,"WEEK 2","2012-11-28","2012-11-28",14,14,""],[15,"CDISCPILOT01","SV","CDISC002",5,"WEEK 4","2012-12-11","2012-12-11",27,27,""],[16,"CDISCPILOT01","SV","CDISC002",7,"WEEK 6","2012-12-25","2012-12-25",41,41,""],[17,"CDISCPILOT01","SV","CDISC002",8,"WEEK 8","2013-01-08","2013-01-08",55,55,""],[18,"CDISCPILOT01","SV","CDISC002",9,"WEEK 12","2013-01-14","2013-01-14",61,61,""],[19,"CDISCPILOT01","SV","CDISC003",1,"SCREENING 1","2013-08-20","2013-08-20",-9,-9,""],[20,"CDISCPILOT01","SV","CDISC003",2,"SCREENING 2","2013-08-27","2013-08-27",-2,-2,""],[21,"CDISCPILOT01","SV","CDISC003",3,"BASELINE","2013-08-29","2013-08-29",1,1,""],[22,"CDISCPILOT01","SV","CDISC003",4,"WEEK 2","2013-09-15","2013-09-15",18,18,""],[23,"CDISCPILOT01","SV","CDISC003",5,"WEEK 4","2013-09-24","2013-09-24",27,27,""],[24,"CDISCPILOT01","SV","CDISC003",7,"WEEK 6","2013-10-08","2013-10-08",41,41,""],[25,"CDISCPILOT01","SV","CDISC003",8,"WEEK 8","2013-10-22","2013-10-22",55,55,""],[26,"CDISCPILOT01","SV","CDISC003",9,"WEEK 12","2013-11-05","2013-11-05",69,69,""],[27,"CDISCPILOT01","SV","CDISC003",101,"EARLY DISCONTINUATION","2013-12-16","2013-12-16",110,110,""],[28,"CDISCPILOT01","SV","CDISC003",201,"EARLY DISCONTINUATION RETRIEVAL","2014-02-13","2014-02-13",169,169,""],[29,"CDISCPILOT01","SV","CDISC004",1,"SCREENING 1","2013-10-01","2013-10-01",-7,-7,""],[30,"CDISCPILOT01","SV","CDISC004",2,"SCREENING 2","2013-10-06","2013-10-06",-2,-2,""],[31,"CDISCPILOT01","SV","CDISC004",3,"BASELINE","2013-10-08","2013-10-08",1,1,""],[32,"CDISCPILOT01","SV","CDISC004",4,"WEEK 2","2013-10-24","2013-10-24",17,17,""],[33,"CDISCPILOT01","SV","CDISC004",5,"WEEK 4","2013-11-08","2013-11-08",32,32,""],[34,"CDISCPILOT01","SV","CDISC004",7,"WEEK 6","2013-11-19","2013-11-19",43,43,""],[35,"CDISCPILOT01","SV","CDISC004",8,"WEEK 8","2013-12-03","2013-12-18",57,72,""],[36,"CDISCPILOT01","SV","CDISC004",9,"WEEK 12","2013-12-31","2014-01-14",85,99,""],[37,"CDISCPILOT01","SV","CDISC004",10,"WEEK 16","2014-01-27","2014-02-11",112,127,""],[38,"CDISCPILOT01","SV","CDISC004",11,"WEEK 20","2014-02-25","2014-03-11",141,155,""],[39,"CDISCPILOT01","SV","CDISC004",12,"WEEK 24","2014-03-18","2014-03-18",162,162,""],[40,"CDISCPILOT01","SV","CDISC005",1,"SCREENING 1","2013-01-22","2013-01-22",-13,-13,""],[41,"CDISCPILOT01","SV","CDISC005",2,"SCREENING 2","2013-02-02","2013-02-02",-2,-2,""],[42,"CDISCPILOT01","SV","CDISC005",3,"BASELINE","2013-02-04","2013-02-04",1,1,""],[43,"CDISCPILOT01","SV","CDISC005",4,"WEEK 2","2013-02-19","2013-02-19",16,16,""],[44,"CDISCPILOT01","SV","CDISC005",5,"WEEK 4","2013-03-12","2013-03-12",37,37,""],[45,"CDISCPILOT01","SV","CDISC005",7,"WEEK 6","2013-03-19","2013-03-19",44,44,""],[46,"CDISCPILOT01","SV","CDISC005",8,"WEEK 8","2013-04-02","2013-04-02",58,58,""],[47,"CDISCPILOT01","SV","CDISC005",9,"WEEK 12","2013-04-30","2013-04-30",86,86,""],[48,"CDISCPILOT01","SV","CDISC005",10,"WEEK 16","2013-05-30","2013-05-30",116,116,""],[49,"CDISCPILOT01","SV","CDISC005",11,"WEEK 20","2013-06-25","2013-06-25",142,142,""],[50,"CDISCPILOT01","SV","CDISC005",12,"WEEK 24","2013-07-30","2013-07-30",177,177,""],[51,"CDISCPILOT01","SV","CDISC005",13,"WEEK 26","2013-08-06","2013-08-06",184,184,""],[52,"CDISCPILOT01","SV","CDISC006",1,"SCREENING 1","2013-02-25","2013-02-25",-22,-22,""],[53,"CDISCPILOT01","SV","CDISC006",2,"SCREENING 2","2013-03-17","2013-03-17",-2,-2,""],[54,"CDISCPILOT01","SV","CDISC006",3,"BASELINE","2013-03-19","2013-03-19",1,1,""],[55,"CDISCPILOT01","SV","CDISC006",4,"WEEK 2","2013-04-02","2013-04-02",15,15,""],[56,"CDISCPILOT01","SV","CDISC006",5,"WEEK 4","2013-04-16","2013-04-16",29,29,""],[57,"CDISCPILOT01","SV","CDISC006",7,"WEEK 6","2013-04-30","2013-04-30",43,43,""],[58,"CDISCPILOT01","SV","CDISC007",1,"SCREENING 1","2012-12-31","2012-12-31",-5,-5,""],[59,"CDISCPILOT01","SV","CDISC007",2,"SCREENING 2","2013-01-03","2013-01-03",-2,-2,""],[60,"CDISCPILOT01","SV","CDISC007",3,"BASELINE","2013-01-05","2013-01-05",1,1,""],[61,"CDISCPILOT01","SV","CDISC007",4,"WEEK 2","2013-01-18","2013-01-18",14,14,""],[62,"CDISCPILOT01","SV","CDISC007",5,"WEEK 4","2013-01-31","2013-01-31",27,27,""],[63,"CDISCPILOT01","SV","CDISC007",7,"WEEK 6","2013-02-13","2013-02-13",40,40,""],[64,"CDISCPILOT01","SV","CDISC007",101,"EARLY DISCONTINUATION","2013-06-20","2013-06-20",167,167,""],[65,"CDISCPILOT01","SV","CDISC007",201,"EARLY DISCONTINUATION RETRIEVAL","2013-06-20","2013-06-20",167,167,""],[66,"CDISCPILOT01","SV","CDISC008",1,"SCREENING 1","2014-05-01","2014-05-01",-10,-10,""],[67,"CDISCPILOT01","SV","CDISC008",1.01,"SCREENING 1: UNSCHEDULED 01","2014-05-03","2014-05-03",-8,-8,"UNSCHEDULED LABS"],[68,"CDISCPILOT01","SV","CDISC008",2,"SCREENING 2","2014-05-09","2014-05-09",-2,-2,""],[69,"CDISCPILOT01","SV","CDISC008",3,"BASELINE","2014-05-11","2014-05-11",1,1,""],[70,"CDISCPILOT01","SV","CDISC008",4,"WEEK 2","2014-05-25","2014-05-25",15,15,""],[71,"CDISCPILOT01","SV","CDISC008",5,"WEEK 4","2014-06-11","2014-06-11",32,32,""],[72,"CDISCPILOT01","SV","CDISC008",7,"WEEK 6","2014-06-25","2014-06-25",46,46,""],[73,"CDISCPILOT01","SV","CDISC008",8,"WEEK 8","2014-07-09","2014-07-09",60,60,""],[74,"CDISCPILOT01","SV","CDISC008",9,"WEEK 12","2014-08-06","2014-08-06",88,88,""],[75,"CDISCPILOT01","SV","CDISC008",10,"WEEK 16","2014-09-03","2014-09-03",116,116,""],[76,"CDISCPILOT01","SV","CDISC008",11,"WEEK 20","2014-10-01","2014-10-01",144,144,""],[77,"CDISCPILOT01","SV","CDISC008",12,"WEEK 24","2014-10-31","2014-10-31",174,174,"Updated as subject died"],[78,"CDISCPILOT01","SV","CDISC009",1,"SCREENING 1","2012-10-06","2012-10-06",-16,-16,""],[79,"CDISCPILOT01","SV","CDISC009",2,"SCREENING 2","2012-10-20","2012-10-20",-2,-2,""],[80,"CDISCPILOT01","SV","CDISC009",3,"BASELINE","2012-10-22","2012-10-22",1,1,""],[81,"CDISCPILOT01","SV","CDISC009",4,"WEEK 2","2012-11-05","2012-11-05",15,15,""],[82,"CDISCPILOT01","SV","CDISC009",5,"WEEK 4","2012-11-20","2012-11-20",30,30,""],[83,"CDISCPILOT01","SV","CDISC009",7,"WEEK 6","2012-12-08","2012-12-08",48,48,""],[84,"CDISCPILOT01","SV","CDISC009",8,"WEEK 8","2012-12-22","2012-12-22",62,62,""],[85,"CDISCPILOT01","SV","CDISC009",9,"WEEK 12","2013-01-19","2013-01-19",90,90,""],[86,"CDISCPILOT01","SV","CDISC009",10,"WEEK 16","2013-02-16","2013-02-16",118,118,""],[87,"CDISCPILOT01","SV","CDISC009",11,"WEEK 20","2013-03-16","2013-03-16",146,146,""],[88,"CDISCPILOT01","SV","CDISC009",12,"WEEK 24","2013-04-10","2013-04-10",171,171,""],[89,"CDISCPILOT01","SV","CDISC009",13,"WEEK 26","2013-04-28","2013-04-28",189,189,""],[90,"CDISCPILOT01","SV","CDISC010",1,"SCREENING 1","2013-09-08","2013-09-08",-13,-13,""],[91,"CDISCPILOT01","SV","CDISC010",1.01,"SCREENING 1: UNSCHEDULED 01","2013-09-19","2013-09-19",-2,-2,"UNSCHEDULED LABS"],[92,"CDISCPILOT01","SV","CDISC010",2,"SCREENING 2","2013-09-19","2013-09-19",-2,-2,""],[93,"CDISCPILOT01","SV","CDISC010",3,"BASELINE","2013-09-21","2013-09-21",1,1,""],[94,"CDISCPILOT01","SV","CDISC010",4,"WEEK 2","2013-09-26","2013-09-26",6,6,""],[95,"CDISCPILOT01","SV","CDISC011",1,"SCREENING 1","2012-11-21","2012-11-21",-16,-16,""],[96,"CDISCPILOT01","SV","CDISC011",2,"SCREENING 2","2012-12-05","2012-12-05",-2,-2,""],[97,"CDISCPILOT01","SV","CDISC011",3,"BASELINE","2012-12-07","2012-12-07",1,1,""],[98,"CDISCPILOT01","SV","CDISC011",4,"WEEK 2","2012-12-21","2012-12-21",15,15,""],[99,"CDISCPILOT01","SV","CDISC011",5,"WEEK 4","2013-01-01","2013-01-01",26,26,""],[100,"CDISCPILOT01","SV","CDISC011",7,"WEEK 6","2013-01-15","2013-01-15",40,40,""],[101,"CDISCPILOT01","SV","CDISC011",8,"WEEK 8","2013-01-29","2013-01-29",54,54,""],[102,"CDISCPILOT01","SV","CDISC011",9,"WEEK 12","2013-02-27","2013-02-27",83,83,""],[103,"CDISCPILOT01","SV","CDISC011",10,"WEEK 16","2013-03-27","2013-03-27",111,111,""],[104,"CDISCPILOT01","SV","CDISC011",11,"WEEK 20","2013-04-23","2013-04-23",138,138,""],[105,"CDISCPILOT01","SV","CDISC011",12,"WEEK 24","2013-05-22","2013-05-22",167,167,""],[106,"CDISCPILOT01","SV","CDISC011",13,"WEEK 26","2013-06-05","2013-06-05",181,181,""],[107,"CDISCPILOT01","SV","CDISC011",101,"EARLY DISCONTINUATION","2013-07-05","2013-07-05",211,211,""],[108,"CDISCPILOT01","SV","CDISC012",1,"SCREENING 1","2013-08-24","2013-08-24",-10,-10,""],[109,"CDISCPILOT01","SV","CDISC012",2,"SCREENING 2","2013-09-01","2013-09-01",-2,-2,""],[110,"CDISCPILOT01","SV","CDISC012",3,"BASELINE","2013-09-03","2013-09-03",1,1,""],[111,"CDISCPILOT01","SV","CDISC012",4,"WEEK 2","2013-09-21","2013-09-21",19,19,""],[112,"CDISCPILOT01","SV","CDISC012",5,"WEEK 4","2013-10-05","2013-10-05",33,33,""],[113,"CDISCPILOT01","SV","CDISC012",7,"WEEK 6","2013-10-19","2013-10-19",47,47,""],[114,"CDISCPILOT01","SV","CDISC012",8,"WEEK 8","2013-11-05","2013-11-05",64,64,""],[115,"CDISCPILOT01","SV","CDISC012",9,"WEEK 12","2013-12-02","2013-12-02",91,91,""],[116,"CDISCPILOT01","SV","CDISC012",10,"WEEK 16","2014-01-12","2014-01-12",132,132,""],[117,"CDISCPILOT01","SV","CDISC012",11,"WEEK 20","2014-01-28","2014-01-28",148,148,""],[118,"CDISCPILOT01","SV","CDISC013",1,"SCREENING 1","2013-07-09","2013-07-09",-13,-13,""],[119,"CDISCPILOT01","SV","CDISC013",2,"SCREENING 2","2013-07-20","2013-07-20",-2,-2,""],[120,"CDISCPILOT01","SV","CDISC013",3,"BASELINE","2013-07-22","2013-07-22",1,1,""],[121,"CDISCPILOT01","SV","CDISC013",4,"WEEK 2","2013-08-02","2013-08-02",12,12,"Updated as subject died"],[122,"CDISCPILOT01","SV","CDISC014",1,"SCREENING 1","2013-03-20","2013-03-20",-14,-14,""],[123,"CDISCPILOT01","SV","CDISC014",1.01,"SCREENING 1: UNSCHEDULED 01","2013-03-23","2013-03-23",-11,-11,"UNSCHEDULED LABS"],[124,"CDISCPILOT01","SV","CDISC014",2,"SCREENING 2","2013-04-01","2013-04-01",-2,-2,""],[125,"CDISCPILOT01","SV","CDISC014",3,"BASELINE","2013-04-03","2013-04-03",1,1,""],[126,"CDISCPILOT01","SV","CDISC014",4,"WEEK 2","2013-04-17","2013-04-17",15,15,""],[127,"CDISCPILOT01","SV","CDISC014",5,"WEEK 4","2013-05-02","2013-05-02",30,30,""],[128,"CDISCPILOT01","SV","CDISC014",101,"EARLY DISCONTINUATION","2013-07-17","2013-07-17",106,106,""],[129,"CDISCPILOT01","SV","CDISC014",201,"EARLY DISCONTINUATION RETRIEVAL","2013-09-18","2013-09-18",169,169,""],[130,"CDISCPILOT01","SV","CDISC015",1,"SCREENING 1","2014-03-17","2014-03-17",null,null,""],[131,"CDISCPILOT01","SV","CDISC016",1,"SCREENING 1","2013-03-30","2013-03-30",-4,-4,""],[132,"CDISCPILOT01","SV","CDISC016",2,"SCREENING 2","2013-04-01","2013-04-01",-2,-2,""],[133,"CDISCPILOT01","SV","CDISC016",3,"BASELINE","2013-04-03","2013-04-03",1,1,""],[134,"CDISCPILOT01","SV","CDISC016",4,"WEEK 2","2013-04-17","2013-04-17",15,15,""],[135,"CDISCPILOT01","SV","CDISC016",5,"WEEK 4","2013-04-29","2013-04-29",27,27,""],[136,"CDISCPILOT01","SV","CDISC016",7,"WEEK 6","2013-05-15","2013-05-15",43,43,""],[137,"CDISCPILOT01","SV","CDISC016",7.01,"WEEK 6: UNSCHEDULED 01","2013-05-19","2013-05-19",47,47,"UNSCHEDULED LABS"],[138,"CDISCPILOT01","SV","CDISC016",8,"WEEK 8","2013-05-28","2013-05-28",56,56,""],[139,"CDISCPILOT01","SV","CDISC016",9,"WEEK 12","2013-06-01","2013-06-01",60,60,""],[140,"CDISCPILOT01","SV","CDISC016",9.01,"WEEK 12: UNSCHEDULED 01","2013-06-22","2013-06-22",81,81,"UNSCHEDULED LABS"],[141,"CDISCPILOT01","SV","CDISC016",9.02,"WEEK 12: UNSCHEDULED 02","2013-09-22","2013-09-22",173,173,"UNSCHEDULED LABS"],[142,"CDISCPILOT01","SV","CDISC016",101,"EARLY DISCONTINUATION","2013-06-22","2013-06-22",81,81,""],[143,"CDISCPILOT01","SV","CDISC016",201,"EARLY DISCONTINUATION RETRIEVAL","2013-09-22","2013-09-22",173,173,""],[144,"CDISCPILOT01","SV","CDISC017",1,"SCREENING 1","2013-08-21","2013-08-21",-31,-31,""],[145,"CDISCPILOT01","SV","CDISC017",2,"SCREENING 2","2013-09-19","2013-09-19",-2,-2,""],[146,"CDISCPILOT01","SV","CDISC017",3,"BASELINE","2013-09-21","2013-09-21",1,1,""],[147,"CDISCPILOT01","SV","CDISC017",4,"WEEK 2","2013-10-03","2013-10-03",13,13,""],[148,"CDISCPILOT01","SV","CDISC017",5,"WEEK 4","2013-10-17","2013-10-17",27,27,""],[149,"CDISCPILOT01","SV","CDISC017",7,"WEEK 6","2013-11-02","2013-11-02",43,43,""],[150,"CDISCPILOT01","SV","CDISC017",8,"WEEK 8","2013-11-16","2013-11-16",57,57,""],[151,"CDISCPILOT01","SV","CDISC017",9,"WEEK 12","2013-12-14","2013-12-14",85,85,""],[152,"CDISCPILOT01","SV","CDISC017",10,"WEEK 16","2014-01-11","2014-01-11",113,113,""],[153,"CDISCPILOT01","SV","CDISC017",11,"WEEK 20","2014-02-08","2014-02-08",141,141,""],[154,"CDISCPILOT01","SV","CDISC017",101,"EARLY DISCONTINUATION","2014-03-08","2014-03-08",169,169,""],[155,"CDISCPILOT01","SV","CDISC017",201,"EARLY DISCONTINUATION RETRIEVAL","2014-03-08","2014-03-08",169,169,""],[156,"CDISCPILOT01","SV","CDISC018",1,"SCREENING 1","2012-12-13","2012-12-13",-4,-4,""],[157,"CDISCPILOT01","SV","CDISC018",2,"SCREENING 2","2012-12-15","2012-12-15",-2,-2,""],[158,"CDISCPILOT01","SV","CDISC018",3,"BASELINE","2012-12-17","2012-12-17",1,1,""],[159,"CDISCPILOT01","SV","CDISC018",4,"WEEK 2","2012-12-31","2012-12-31",15,15,""],[160,"CDISCPILOT01","SV","CDISC018",5,"WEEK 4","2013-01-17","2013-01-17",32,32,""],[161,"CDISCPILOT01","SV","CDISC018",7,"WEEK 6","2013-01-28","2013-01-28",43,43,""],[162,"CDISCPILOT01","SV","CDISC018",8,"WEEK 8","2013-02-18","2013-02-18",64,64,""],[163,"CDISCPILOT01","SV","CDISC018",8.01,"WEEK 8: UNSCHEDULED 01","2013-02-18","2013-02-18",64,64,"UNSCHEDULED LABS"],[164,"CDISCPILOT01","SV","CDISC018",201,"EARLY DISCONTINUATION RETRIEVAL","2013-06-03","2013-06-03",169,169,""]]}