{"datasetJSONCreationDateTime":"2024-08-06T21:10:58","datasetJSONVersion":"1.1.0","fileOID":"Covance Laboratories/Study8326556-Define2-XML_2.0.0/2024-08-06/bw","dbLastModifiedDateTime":"2019-10-03T10:03:27","originator":"CDISC SEND Team","sourceSystem":{"name":"SAS on X64_10PRO","version":"9.0401M7"},"studyOID":"8326556","metaDataVersionOID":"CDISC-SEND.3.1","metaDataRef":"define.xml","itemGroupOID":"IG.BW","isReferenceData":false,"records":44,"name":"BW","label":"Body Weight","columns":[{"itemOID":"ITEMGROUPDATASEQ","name":"ITEMGROUPDATASEQ","label":"Record Identifier","dataType":"integer"},{"itemOID":"IT.BW.STUDYID","name":"STUDYID","label":"Study Identifier","dataType":"string","length":7,"keySequence":1},{"itemOID":"IT.BW.DOMAIN","name":"DOMAIN","label":"Domain Abbreviation","dataType":"string","length":2},{"itemOID":"IT.BW.USUBJID","name":"USUBJID","label":"Unique Subject Identifier","dataType":"string","length":14,"keySequence":2},{"itemOID":"IT.BW.BWSEQ","name":"BWSEQ","label":"Sequence Number","dataType":"integer"},{"itemOID":"IT.BW.BWTESTCD","name":"BWTESTCD","label":"Test Short Name","dataType":"string","length":2,"keySequence":3},{"itemOID":"IT.BW.BWTEST","name":"BWTEST","label":"Test Name","dataType":"string","length":11},{"itemOID":"IT.BW.BWORRES","name":"BWORRES","label":"Result or Findings as Collected","dataType":"string","length":3},{"itemOID":"IT.BW.BWORRESU","name":"BWORRESU","label":"Unit of the Original Result","dataType":"string","length":2},{"itemOID":"IT.BW.BWSTRESC","name":"BWSTRESC","label":"Standardized Result in Character Format","dataType":"string","length":3},{"itemOID":"IT.BW.BWSTRESN","name":"BWSTRESN","label":"Standardized Result in Numeric Format","dataType":"float"},{"itemOID":"IT.BW.BWSTRESU","name":"BWSTRESU","label":"Unit of the Standardized Result","dataType":"string","length":2},{"itemOID":"IT.BW.BWBLFL","name":"BWBLFL","label":"Baseline Flag","dataType":"string","length":1},{"itemOID":"IT.BW.VISITDY","name":"VISITDY","label":"Planned Study Day of Collection","dataType":"integer"},{"itemOID":"IT.BW.BWDTC","name":"BWDTC","label":"Date/Time Animal Weighed","dataType":"datetime","keySequence":4},{"itemOID":"IT.BW.BWDY","name":"BWDY","label":"Study Day Animal Weighed","dataType":"integer"},{"itemOID":"IT.BW.BWNOMDY","name":"BWNOMDY","label":"Nominal Study Day for Tabulations","dataType":"integer"},{"itemOID":"IT.BW.BWNOMLBL","name":"BWNOMLBL","label":"Label for Nominal Study Day","dataType":"string","length":13}],"rows":[[1,"8326556","BW","8326556-I10808",1,"BW","Body Weight","2.7","kg","2.7",2.7,"kg","",-8,"2015-07-23T14:56:21",-8,-8,"Predose Day 1"],[2,"8326556","BW","8326556-I10808",2,"BW","Body Weight","2.7","kg","2.7",2.7,"kg","",-1,"2015-07-30T08:08:31",-1,-1,"Predose Day 8"],[3,"8326556","BW","8326556-I10808",3,"BW","Body Weight","2.7","kg","2.7",2.7,"kg","",1,"2015-07-31T07:11:50",1,1,"Dosing Day 1"],[4,"8326556","BW","8326556-I10808",4,"BW","Body Weight","2.7","kg","2.7",2.7,"kg","",8,"2015-08-07T13:13:39",8,8,"Dosing Day 8"],[5,"8326556","BW","8326556-I10808",5,"BW","Body Weight","2.8","kg","2.8",2.8,"kg","",15,"2015-08-14T07:26:05",15,15,"Dosing Day 15"],[6,"8326556","BW","8326556-I10808",6,"BW","Body Weight","2.8","kg","2.8",2.8,"kg","",22,"2015-08-21T07:07:27",22,22,"Dosing Day 22"],[7,"8326556","BW","8326556-I10808",7,"BW","Body Weight","2.8","kg","2.8",2.8,"kg","",29,"2015-08-28T07:05:00",29,29,"Dosing Day 29"],[8,"8326556","BW","8326556-I10808",8,"BW","Body Weight","2.8","kg","2.8",2.8,"kg","",36,"2015-09-04T07:03:37",36,36,"Dosing Day 36"],[9,"8326556","BW","8326556-I10808",9,"BW","Body Weight","3.0","kg","3.0",3,"kg","",43,"2015-09-11T07:06:27",43,43,"Dosing Day 43"],[10,"8326556","BW","8326556-I10808",10,"BW","Body Weight","2.8","kg","2.8",2.8,"kg","",50,"2015-09-18T07:11:41",50,50,"Dosing Day 50"],[11,"8326556","BW","8326556-I10808",11,"BW","Body Weight","2.8","kg","2.8",2.8,"kg","",57,"2015-09-25T07:05:58",57,57,"Dosing Day 57"],[12,"8326556","BW","8326556-I10809",12,"BW","Body Weight","3.0","kg","3.0",3,"kg","",-8,"2015-07-23T14:50:15",-8,-8,"Predose Day 1"],[13,"8326556","BW","8326556-I10809",13,"BW","Body Weight","3.0","kg","3.0",3,"kg","",-1,"2015-07-30T08:12:55",-1,-1,"Predose Day 8"],[14,"8326556","BW","8326556-I10809",14,"BW","Body Weight","3.0","kg","3.0",3,"kg","",1,"2015-07-31T07:13:31",1,1,"Dosing Day 1"],[15,"8326556","BW","8326556-I10809",15,"BW","Body Weight","2.9","kg","2.9",2.9,"kg","",8,"2015-08-07T13:17:19",8,8,"Dosing Day 8"],[16,"8326556","BW","8326556-I10809",16,"BW","Body Weight","2.9","kg","2.9",2.9,"kg","",15,"2015-08-14T07:27:12",15,15,"Dosing Day 15"],[17,"8326556","BW","8326556-I10809",17,"BW","Body Weight","3.0","kg","3.0",3,"kg","",22,"2015-08-21T07:09:10",22,22,"Dosing Day 22"],[18,"8326556","BW","8326556-I10809",18,"BW","Body Weight","3.0","kg","3.0",3,"kg","",29,"2015-08-28T07:13:07",29,29,"Dosing Day 29"],[19,"8326556","BW","8326556-I10809",19,"BW","Body Weight","3.0","kg","3.0",3,"kg","",36,"2015-09-04T07:08:26",36,36,"Dosing Day 36"],[20,"8326556","BW","8326556-I10809",20,"BW","Body Weight","3.0","kg","3.0",3,"kg","",43,"2015-09-11T07:10:20",43,43,"Dosing Day 43"],[21,"8326556","BW","8326556-I10809",21,"BW","Body Weight","3.0","kg","3.0",3,"kg","",50,"2015-09-18T07:08:08",50,50,"Dosing Day 50"],[22,"8326556","BW","8326556-I10809",22,"BW","Body Weight","3.0","kg","3.0",3,"kg","",57,"2015-09-25T06:59:52",57,57,"Dosing Day 57"],[23,"8326556","BW","8326556-I10810",23,"BW","Body Weight","2.7","kg","2.7",2.7,"kg","",-8,"2015-07-23T14:59:02",-8,-8,"Predose Day 1"],[24,"8326556","BW","8326556-I10810",24,"BW","Body Weight","2.6","kg","2.6",2.6,"kg","",-1,"2015-07-30T08:11:33",-1,-1,"Predose Day 8"],[25,"8326556","BW","8326556-I10810",25,"BW","Body Weight","2.6","kg","2.6",2.6,"kg","",1,"2015-07-31T07:08:48",1,1,"Dosing Day 1"],[26,"8326556","BW","8326556-I10810",26,"BW","Body Weight","2.5","kg","2.5",2.5,"kg","",8,"2015-08-07T13:15:46",8,8,"Dosing Day 8"],[27,"8326556","BW","8326556-I10810",27,"BW","Body Weight","2.7","kg","2.7",2.7,"kg","",15,"2015-08-14T07:24:18",15,15,"Dosing Day 15"],[28,"8326556","BW","8326556-I10810",28,"BW","Body Weight","2.6","kg","2.6",2.6,"kg","",22,"2015-08-21T07:05:27",22,22,"Dosing Day 22"],[29,"8326556","BW","8326556-I10810",29,"BW","Body Weight","2.7","kg","2.7",2.7,"kg","",29,"2015-08-28T07:09:25",29,29,"Dosing Day 29"],[30,"8326556","BW","8326556-I10810",30,"BW","Body Weight","2.7","kg","2.7",2.7,"kg","",36,"2015-09-04T07:06:08",36,36,"Dosing Day 36"],[31,"8326556","BW","8326556-I10810",31,"BW","Body Weight","2.7","kg","2.7",2.7,"kg","",43,"2015-09-11T07:12:21",43,43,"Dosing Day 43"],[32,"8326556","BW","8326556-I10810",32,"BW","Body Weight","2.5","kg","2.5",2.5,"kg","",50,"2015-09-18T07:09:47",50,50,"Dosing Day 50"],[33,"8326556","BW","8326556-I10810",33,"BW","Body Weight","2.6","kg","2.6",2.6,"kg","",57,"2015-09-25T07:02:46",57,57,"Dosing Day 57"],[34,"8326556","BW","8326556-I10811",34,"BW","Body Weight","2.7","kg","2.7",2.7,"kg","",-8,"2015-07-23T15:01:41",-8,-8,"Predose Day 1"],[35,"8326556","BW","8326556-I10811",35,"BW","Body Weight","2.7","kg","2.7",2.7,"kg","",-1,"2015-07-30T08:16:06",-1,-1,"Predose Day 8"],[36,"8326556","BW","8326556-I10811",36,"BW","Body Weight","2.8","kg","2.8",2.8,"kg","",1,"2015-07-31T07:15:43",1,1,"Dosing Day 1"],[37,"8326556","BW","8326556-I10811",37,"BW","Body Weight","2.7","kg","2.7",2.7,"kg","",8,"2015-08-07T13:18:54",8,8,"Dosing Day 8"],[38,"8326556","BW","8326556-I10811",38,"BW","Body Weight","2.7","kg","2.7",2.7,"kg","",15,"2015-08-14T07:28:30",15,15,"Dosing Day 15"],[39,"8326556","BW","8326556-I10811",39,"BW","Body Weight","2.7","kg","2.7",2.7,"kg","",22,"2015-08-21T07:11:02",22,22,"Dosing Day 22"],[40,"8326556","BW","8326556-I10811",40,"BW","Body Weight","2.8","kg","2.8",2.8,"kg","",29,"2015-08-28T07:01:33",29,29,"Dosing Day 29"],[41,"8326556","BW","8326556-I10811",41,"BW","Body Weight","2.9","kg","2.9",2.9,"kg","",36,"2015-09-04T07:10:06",36,36,"Dosing Day 36"],[42,"8326556","BW","8326556-I10811",42,"BW","Body Weight","2.9","kg","2.9",2.9,"kg","",43,"2015-09-11T07:14:31",43,43,"Dosing Day 43"],[43,"8326556","BW","8326556-I10811",43,"BW","Body Weight","2.9","kg","2.9",2.9,"kg","",50,"2015-09-18T07:21:39",50,50,"Dosing Day 50"],[44,"8326556","BW","8326556-I10811",44,"BW","Body Weight","2.9","kg","2.9",2.9,"kg","",57,"2015-09-25T07:09:03",57,57,"Dosing Day 57"]]}