{"datasetJSONCreationDateTime":"2024-07-30T16:40:36","datasetJSONVersion":"1.1.0","fileOID":"Covance Laboratories/Study8326556-Define2-XML_2.0.0/2024-07-30/dm","dbLastModifiedDateTime":"2019-10-03T10:03:27","originator":"CDISC SEND Team","sourceSystem":{"name":"SAS on DESKTOP-K9AB6GC","version":"9.04.01M7P08052020"},"studyOID":"8326556","metaDataVersionOID":"CDISC-SEND.3.1","metaDataRef":"define.xml","itemGroupOID":"IG.DM","records":4,"name":"DM","label":"Demographics","columns":[{"itemOID":"ITEMGROUPDATASEQ","name":"ITEMGROUPDATASEQ","label":"Record Identifier","dataType":"integer"},{"itemOID":"IT.DM.STUDYID","name":"STUDYID","label":"Study Identifier","dataType":"string","length":7,"keySequence":1},{"itemOID":"IT.DM.DOMAIN","name":"DOMAIN","label":"Domain Abbreviation","dataType":"string","length":2},{"itemOID":"IT.DM.USUBJID","name":"USUBJID","label":"Unique Subject Identifier","dataType":"string","length":14,"keySequence":2},{"itemOID":"IT.DM.SUBJID","name":"SUBJID","label":"Subject Identifier for the Study","dataType":"string","length":6},{"itemOID":"IT.DM.RFSTDTC","name":"RFSTDTC","label":"Subject Reference Start Date/Time","dataType":"datetime"},{"itemOID":"IT.DM.RFENDTC","name":"RFENDTC","label":"Subject Reference End Date/Time","dataType":"datetime"},{"itemOID":"IT.DM.RFXSTDTC","name":"RFXSTDTC","label":"Date/Time of First Study Treatment","dataType":"datetime"},{"itemOID":"IT.DM.RFXENDTC","name":"RFXENDTC","label":"Date/Time of Last Study Treatment","dataType":"datetime"},{"itemOID":"IT.DM.AGETXT","name":"AGETXT","label":"Age Range","dataType":"string","length":3},{"itemOID":"IT.DM.AGEU","name":"AGEU","label":"Age Unit","dataType":"string","length":5},{"itemOID":"IT.DM.SEX","name":"SEX","label":"Sex","dataType":"string","length":1},{"itemOID":"IT.DM.ARMCD","name":"ARMCD","label":"Planned Arm Code","dataType":"string","length":1},{"itemOID":"IT.DM.ARM","name":"ARM","label":"Description of Planned Arm","dataType":"string","length":4},{"itemOID":"IT.DM.SETCD","name":"SETCD","label":"Set Code","dataType":"string","length":1}],"rows":[[1,"8326556","DM","8326556-I10808","I10808","2015-07-31","2015-09-25","2015-07-31T09:04:27","2015-08-28T10:13:20","2-7","YEARS","F","1","Dose","1"],[2,"8326556","DM","8326556-I10809","I10809","2015-07-31","2015-09-25","2015-07-31T09:06:17","2015-08-28T10:15:00","2-7","YEARS","F","1","Dose","1"],[3,"8326556","DM","8326556-I10810","I10810","2015-07-31","2015-09-25","2015-07-31T09:08:56","2015-08-28T10:16:15","2-7","YEARS","F","1","Dose","1"],[4,"8326556","DM","8326556-I10811","I10811","2015-07-31","2015-09-25","2015-07-31T09:10:58","2015-08-28T10:17:02","2-7","YEARS","F","1","Dose","1"]]}