{"datasetJSONCreationDateTime":"2024-07-30T16:40:24","datasetJSONVersion":"1.1.0","fileOID":"www.cdisc.org/StudyMSGv1/1/Define-XML_2.1.0/2024-07-30/adadas","dbLastModifiedDateTime":"2024-07-30T16:34:24","originator":"CDISC ADaM MSG Team","sourceSystem":{"name":"SAS on DESKTOP-K9AB6GC","version":"9.04.01M7P08052020"},"studyOID":"TDF_ADaM.ADaMIG.1.1","metaDataVersionOID":"MDV.TDF_ADaM.ADaMIG.1.1","metaDataRef":"define.xml","itemGroupOID":"IG.ADADAS","records":12463,"name":"ADADAS","label":"ADAS-Cog Analysis","columns":[{"itemOID":"ITEMGROUPDATASEQ","name":"ITEMGROUPDATASEQ","label":"Record Identifier","dataType":"integer"},{"itemOID":"IT.ADADAS.STUDYID","name":"STUDYID","label":"Study Identifier","dataType":"string","length":12},{"itemOID":"IT.ADADAS.SITEID","name":"SITEID","label":"Study Site Identifier","dataType":"string","length":3},{"itemOID":"IT.ADADAS.SITEGR1","name":"SITEGR1","label":"Pooled Site Group 1","dataType":"string","length":3},{"itemOID":"IT.ADADAS.USUBJID","name":"USUBJID","label":"Unique Subject Identifier","dataType":"string","length":11,"keySequence":1},{"itemOID":"IT.ADADAS.TRTSDT","name":"TRTSDT","label":"Date of First Exposure to Treatment","dataType":"date","targetDataType":"integer","displayFormat":"E8601DA."},{"itemOID":"IT.ADADAS.TRTEDT","name":"TRTEDT","label":"Date of Last Exposure to Treatment","dataType":"date","targetDataType":"integer","displayFormat":"E8601DA."},{"itemOID":"IT.ADADAS.TRTP","name":"TRTP","label":"Planned Treatment","dataType":"string","length":20},{"itemOID":"IT.ADADAS.TRTPN","name":"TRTPN","label":"Planned Treatment (N)","dataType":"integer"},{"itemOID":"IT.ADADAS.AGE","name":"AGE","label":"Age","dataType":"integer"},{"itemOID":"IT.ADADAS.AGEGR1","name":"AGEGR1","label":"Pooled Age Group 1","dataType":"string","length":5},{"itemOID":"IT.ADADAS.AGEGR1N","name":"AGEGR1N","label":"Pooled Age Group 1 (N)","dataType":"integer"},{"itemOID":"IT.ADADAS.RACE","name":"RACE","label":"Race","dataType":"string","length":32},{"itemOID":"IT.ADADAS.RACEN","name":"RACEN","label":"Race (N)","dataType":"integer"},{"itemOID":"IT.ADADAS.SEX","name":"SEX","label":"Sex","dataType":"string","length":1},{"itemOID":"IT.ADADAS.ITTFL","name":"ITTFL","label":"Intent-to-Treat Population Flag","dataType":"string","length":1},{"itemOID":"IT.ADADAS.EFFFL","name":"EFFFL","label":"Efficacy Population Flag","dataType":"string","length":1},{"itemOID":"IT.ADADAS.COMP24FL","name":"COMP24FL","label":"Completers of Week 24 Population Flag","dataType":"string","length":1},{"itemOID":"IT.ADADAS.AVISIT","name":"AVISIT","label":"Analysis Visit","dataType":"string","length":16,"keySequence":3},{"itemOID":"IT.ADADAS.AVISITN","name":"AVISITN","label":"Analysis Visit (N)","dataType":"integer"},{"itemOID":"IT.ADADAS.VISIT","name":"VISIT","label":"Visit Name","dataType":"string","length":19},{"itemOID":"IT.ADADAS.VISITNUM","name":"VISITNUM","label":"Visit Number","dataType":"integer"},{"itemOID":"IT.ADADAS.ADY","name":"ADY","label":"Analysis Relative Day","dataType":"integer"},{"itemOID":"IT.ADADAS.ADT","name":"ADT","label":"Analysis Date","dataType":"date","targetDataType":"integer","displayFormat":"E8601DA.","keySequence":4},{"itemOID":"IT.ADADAS.PARAM","name":"PARAM","label":"Parameter","dataType":"string","length":100},{"itemOID":"IT.ADADAS.PARAMCD","name":"PARAMCD","label":"Parameter Code","dataType":"string","length":8,"keySequence":2},{"itemOID":"IT.ADADAS.PARAMN","name":"PARAMN","label":"Parameter (N)","dataType":"integer"},{"itemOID":"IT.ADADAS.AVAL","name":"AVAL","label":"Analysis Value","dataType":"decimal","targetDataType":"decimal"},{"itemOID":"IT.ADADAS.BASE","name":"BASE","label":"Baseline Value","dataType":"decimal","targetDataType":"decimal"},{"itemOID":"IT.ADADAS.CHG","name":"CHG","label":"Change from Baseline","dataType":"decimal","targetDataType":"decimal"},{"itemOID":"IT.ADADAS.PCHG","name":"PCHG","label":"Percent Change from Baseline","dataType":"decimal","targetDataType":"decimal"},{"itemOID":"IT.ADADAS.ABLFL","name":"ABLFL","label":"Baseline Record Flag","dataType":"string","length":1},{"itemOID":"IT.ADADAS.ANL01FL","name":"ANL01FL","label":"Analysis Record Flag 01","dataType":"string","length":1},{"itemOID":"IT.ADADAS.DTYPE","name":"DTYPE","label":"Derivation Type","dataType":"string","length":7},{"itemOID":"IT.ADADAS.AWRANGE","name":"AWRANGE","label":"Analysis Window Valid Relative Range","dataType":"string","length":9},{"itemOID":"IT.ADADAS.AWTARGET","name":"AWTARGET","label":"Analysis Window Target","dataType":"integer"},{"itemOID":"IT.ADADAS.AWTDIFF","name":"AWTDIFF","label":"Analysis Window Diff from Target","dataType":"integer"},{"itemOID":"IT.ADADAS.AWLO","name":"AWLO","label":"Analysis Window Beginning Timepoint","dataType":"integer"},{"itemOID":"IT.ADADAS.AWHI","name":"AWHI","label":"Analysis Window Ending Timepoint","dataType":"integer"},{"itemOID":"IT.ADADAS.AWU","name":"AWU","label":"Analysis Window Unit","dataType":"string","length":4},{"itemOID":"IT.ADADAS.QSSEQ","name":"QSSEQ","label":"Sequence Number","dataType":"integer"}],"rows":[[1,"CDISCPILOT01","701","701","01-701-1015","2014-01-02","2014-07-02","Placebo",0,63,"<65",1,"WHITE",1,"F","Y","Y","Y","Baseline",0,"BASELINE",3,1,"2014-01-02","Word Recall Task","ACITM01",1,"3","3","","","Y","Y","","<=1",1,0,null,1,"DAYS",5001],[2,"CDISCPILOT01","701","701","01-701-1015","2014-01-02","2014-07-02","Placebo",0,63,"<65",1,"WHITE",1,"F","Y","Y","Y","Week 8",8,"WEEK 8",8,63,"2014-03-05","Word Recall Task","ACITM01",1,"2","3","-1","-33.3333333333333","","Y","","2-84",56,7,2,84,"DAYS",5016],[3,"CDISCPILOT01","701","701","01-701-1015","2014-01-02","2014-07-02","Placebo",0,63,"<65",1,"WHITE",1,"F","Y","Y","Y","Week 16",16,"WEEK 16",10,126,"2014-05-07","Word Recall Task","ACITM01",1,"4","3","1","33.3333333333333","","Y","","85-140",112,14,85,140,"DAYS",5031],[4,"CDISCPILOT01","701","701","01-701-1015","2014-01-02","2014-07-02","Placebo",0,63,"<65",1,"WHITE",1,"F","Y","Y","Y","Week 24",24,"WEEK 24",12,168,"2014-06-18","Word Recall Task","ACITM01",1,"3","3","0","0","","Y","",">140",168,0,141,null,"DAYS",5046],[5,"CDISCPILOT01","701","701","01-701-1015","2014-01-02","2014-07-02","Placebo",0,63,"<65",1,"WHITE",1,"F","Y","Y","Y","Baseline",0,"BASELINE",3,1,"2014-01-02","Naming Objects And Fingers (Refer To 5 C","ACITM02",2,"1","1","","","Y","Y","","<=1",1,0,null,1,"DAYS",5002],[6,"CDISCPILOT01","701","701","01-701-1015","2014-01-02","2014-07-02","Placebo",0,63,"<65",1,"WHITE",1,"F","Y","Y","Y","Week 8",8,"WEEK 8",8,63,"2014-03-05","Naming Objects And Fingers (Refer To 5 C","ACITM02",2,"0","1","-1","-100","","Y","","2-84",56,7,2,84,"DAYS",5017],[7,"CDISCPILOT01","701","701","01-701-1015","2014-01-02","2014-07-02","Placebo",0,63,"<65",1,"WHITE",1,"F","Y","Y","Y","Week 16",16,"WEEK 16",10,126,"2014-05-07","Naming Objects And Fingers (Refer To 5 C","ACITM02",2,"0","1","-1","-100","","Y","","85-140",112,14,85,140,"DAYS",5032],[8,"CDISCPILOT01","701","701","01-701-1015","2014-01-02","2014-07-02","Placebo",0,63,"<65",1,"WHITE",1,"F","Y","Y","Y","Week 24",24,"WEEK 24",12,168,"2014-06-18","Naming Objects And Fingers (Refer To 5 C","ACITM02",2,"0","1","-1","-100","","Y","",">140",168,0,141,null,"DAYS",5047],[9,"CDISCPILOT01","701","701","01-701-1015","2014-01-02","2014-07-02","Placebo",0,63,"<65",1,"WHITE",1,"F","Y","Y","Y","Baseline",0,"BASELINE",3,1,"2014-01-02","Delayed Word Recall","ACITM03",3,"3","3","","","Y","Y","","<=1",1,0,null,1,"DAYS",5003],[10,"CDISCPILOT01","701","701","01-701-1015","2014-01-02","2014-07-02","Placebo",0,63,"<65",1,"WHITE",1,"F","Y","Y","Y","Week 8",8,"WEEK 8",8,63,"2014-03-05","Delayed Word Recall","ACITM03",3,"3","3","0","0","","Y","","2-84",56,7,2,84,"DAYS",5018],[11,"CDISCPILOT01","701","701","01-701-1015","2014-01-02","2014-07-02","Placebo",0,63,"<65",1,"WHITE",1,"F","Y","Y","Y","Week 16",16,"WEEK 16",10,126,"2014-05-07","Delayed Word Recall","ACITM03",3,"1","3","-2","-66.6666666666666","","Y","","85-140",112,14,85,140,"DAYS",5033],[12,"CDISCPILOT01","701","701","01-701-1015","2014-01-02","2014-07-02","Placebo",0,63,"<65",1,"WHITE",1,"F","Y","Y","Y","Week 24",24,"WEEK 24",12,168,"2014-06-18","Delayed Word Recall","ACITM03",3,"2","3","-1","-33.3333333333333","","Y","",">140",168,0,141,null,"DAYS",5048],[13,"CDISCPILOT01","701","701","01-701-1015","2014-01-02","2014-07-02","Placebo",0,63,"<65",1,"WHITE",1,"F","Y","Y","Y","Baseline",0,"BASELINE",3,1,"2014-01-02","Commands","ACITM04",4,"0","0","","","Y","Y","","<=1",1,0,null,1,"DAYS",5004],[14,"CDISCPILOT01","701","701","01-701-1015","2014-01-02","2014-07-02","Placebo",0,63,"<65",1,"WHITE",1,"F","Y","Y","Y","Week 8",8,"WEEK 8",8,63,"2014-03-05","Commands","ACITM04",4,"0","0","0","","","Y","","2-84",56,7,2,84,"DAYS",5019],[15,"CDISCPILOT01","701","701","01-701-1015","2014-01-02","2014-07-02","Placebo",0,63,"<65",1,"WHITE",1,"F","Y","Y","Y","Week 16",16,"WEEK 16",10,126,"2014-05-07","Commands","ACITM04",4,"0","0","0","","","Y","","85-140",112,14,85,140,"DAYS",5034],[16,"CDISCPILOT01","701","701","01-701-1015","2014-01-02","2014-07-02","Placebo",0,63,"<65",1,"WHITE",1,"F","Y","Y","Y","Week 24",24,"WEEK 24",12,168,"2014-06-18","Commands","ACITM04",4,"0","0","0","","","Y","",">140",168,0,141,null,"DAYS",5049],[17,"CDISCPILOT01","701","701","01-701-1015","2014-01-02","2014-07-02","Placebo",0,63,"<65",1,"WHITE",1,"F","Y","Y","Y","Baseline",0,"BASELINE",3,1,"2014-01-02","Constructional Praxis","ACITM05",5,"3","3","","","Y","Y","","<=1",1,0,null,1,"DAYS",5005],[18,"CDISCPILOT01","701","701","01-701-1015","2014-01-02","2014-07-02","Placebo",0,63,"<65",1,"WHITE",1,"F","Y","Y","Y","Week 8",8,"WEEK 8",8,63,"2014-03-05","Constructional Praxis","ACITM05",5,"2","3","-1","-33.3333333333333","","Y","","2-84",56,7,2,84,"DAYS",5020],[19,"CDISCPILOT01","701","701","01-701-1015","2014-01-02","2014-07-02","Placebo",0,63,"<65",1,"WHITE",1,"F","Y","Y","Y","Week 16",16,"WEEK 16",10,126,"2014-05-07","Constructional Praxis","ACITM05",5,"2","3","-1","-33.3333333333333","","Y","","85-140",112,14,85,140,"DAYS",5035],[20,"CDISCPILOT01","701","701","01-701-1015","2014-01-02","2014-07-02","Placebo",0,63,"<65",1,"WHITE",1,"F","Y","Y","Y","Week 24",24,"WEEK 24",12,168,"2014-06-18","Constructional Praxis","ACITM05",5,"3","3","0","0","","Y","",">140",168,0,141,null,"DAYS",5050],[21,"CDISCPILOT01","701","701","01-701-1015","2014-01-02","2014-07-02","Placebo",0,63,"<65",1,"WHITE",1,"F","Y","Y","Y","Baseline",0,"BASELINE",3,1,"2014-01-02","Ideational Praxis","ACITM06",6,"0","0","","","Y","Y","","<=1",1,0,null,1,"DAYS",5006],[22,"CDISCPILOT01","701","701","01-701-1015","2014-01-02","2014-07-02","Placebo",0,63,"<65",1,"WHITE",1,"F","Y","Y","Y","Week 8",8,"WEEK 8",8,63,"2014-03-05","Ideational Praxis","ACITM06",6,"0","0","0","","","Y","","2-84",56,7,2,84,"DAYS",5021],[23,"CDISCPILOT01","701","701","01-701-1015","2014-01-02","2014-07-02","Placebo",0,63,"<65",1,"WHITE",1,"F","Y","Y","Y","Week 16",16,"WEEK 16",10,126,"2014-05-07","Ideational Praxis","ACITM06",6,"0","0","0","","","Y","","85-140",112,14,85,140,"DAYS",5036],[24,"CDISCPILOT01","701","701","01-701-1015","2014-01-02","2014-07-02","Placebo",0,63,"<65",1,"WHITE",1,"F","Y","Y","Y","Week 24",24,"WEEK 24",12,168,"2014-06-18","Ideational Praxis","ACITM06",6,"0","0","0","","","Y","",">140",168,0,141,null,"DAYS",5051],[25,"CDISCPILOT01","701","701","01-701-1015","2014-01-02","2014-07-02","Placebo",0,63,"<65",1,"WHITE",1,"F","Y","Y","Y","Baseline",0,"BASELINE",3,1,"2014-01-02","Orientation","ACITM07",7,"1","1","","","Y","Y","","<=1",1,0,null,1,"DAYS",5007],[26,"CDISCPILOT01","701","701","01-701-1015","2014-01-02","2014-07-02","Placebo",0,63,"<65",1,"WHITE",1,"F","Y","Y","Y","Week 8",8,"WEEK 8",8,63,"2014-03-05","Orientation","ACITM07",7,"0","1","-1","-100","","Y","","2-84",56,7,2,84,"DAYS",5022],[27,"CDISCPILOT01","701","701","01-701-1015","2014-01-02","2014-07-02","Placebo",0,63,"<65",1,"WHITE",1,"F","Y","Y","Y","Week 16",16,"WEEK 16",10,126,"2014-05-07","Orientation","ACITM07",7,"0","1","-1","-100","","Y","","85-140",112,14,85,140,"DAYS",5037],[28,"CDISCPILOT01","701","701","01-701-1015","2014-01-02","2014-07-02","Placebo",0,63,"<65",1,"WHITE",1,"F","Y","Y","Y","Week 24",24,"WEEK 24",12,168,"2014-06-18","Orientation","ACITM07",7,"1","1","0","0","","Y","",">140",168,0,141,null,"DAYS",5052],[29,"CDISCPILOT01","701","701","01-701-1015","2014-01-02","2014-07-02","Placebo",0,63,"<65",1,"WHITE",1,"F","Y","Y","Y","Baseline",0,"BASELINE",3,1,"2014-01-02","Word Recognition","ACITM08",8,"1","1","","","Y","Y","","<=1",1,0,null,1,"DAYS",5008],[30,"CDISCPILOT01","701","701","01-701-1015","2014-01-02","2014-07-02","Placebo",0,63,"<65",1,"WHITE",1,"F","Y","Y","Y","Week 8",8,"WEEK 8",8,63,"2014-03-05","Word Recognition","ACITM08",8,"0","1","-1","-100","","Y","","2-84",56,7,2,84,"DAYS",5023],[31,"CDISCPILOT01","701","701","01-701-1015","2014-01-02","2014-07-02","Placebo",0,63,"<65",1,"WHITE",1,"F","Y","Y","Y","Week 16",16,"WEEK 16",10,126,"2014-05-07","Word Recognition","ACITM08",8,"1","1","0","0","","Y","","85-140",112,14,85,140,"DAYS",5038],[32,"CDISCPILOT01","701","701","01-701-1015","2014-01-02","2014-07-02","Placebo",0,63,"<65",1,"WHITE",1,"F","Y","Y","Y","Week 24",24,"WEEK 24",12,168,"2014-06-18","Word Recognition","ACITM08",8,"1","1","0","0","","Y","",">140",168,0,141,null,"DAYS",5053],[33,"CDISCPILOT01","701","701","01-701-1015","2014-01-02","2014-07-02","Placebo",0,63,"<65",1,"WHITE",1,"F","Y","Y","Y","Baseline",0,"BASELINE",3,1,"2014-01-02","Attention/Visual Search Task","ACITM09",9,"23","23","","","Y","Y","","<=1",1,0,null,1,"DAYS",5009],[34,"CDISCPILOT01","701","701","01-701-1015","2014-01-02","2014-07-02","Placebo",0,63,"<65",1,"WHITE",1,"F","Y","Y","Y","Week 8",8,"WEEK 8",8,63,"2014-03-05","Attention/Visual Search Task","ACITM09",9,"27","23","4","17.391304347826","","Y","","2-84",56,7,2,84,"DAYS",5024],[35,"CDISCPILOT01","701","701","01-701-1015","2014-01-02","2014-07-02","Placebo",0,63,"<65",1,"WHITE",1,"F","Y","Y","Y","Week 16",16,"WEEK 16",10,126,"2014-05-07","Attention/Visual Search Task","ACITM09",9,"34","23","11","47.8260869565217","","Y","","85-140",112,14,85,140,"DAYS",5039],[36,"CDISCPILOT01","701","701","01-701-1015","2014-01-02","2014-07-02","Placebo",0,63,"<65",1,"WHITE",1,"F","Y","Y","Y","Week 24",24,"WEEK 24",12,168,"2014-06-18","Attention/Visual Search Task","ACITM09",9,"39","23","16","69.5652173913043","","Y","",">140",168,0,141,null,"DAYS",5054],[37,"CDISCPILOT01","701","701","01-701-1015","2014-01-02","2014-07-02","Placebo",0,63,"<65",1,"WHITE",1,"F","Y","Y","Y","Baseline",0,"BASELINE",3,1,"2014-01-02","Maze Solution","ACITM10",10,"3","3","","","Y","Y","","<=1",1,0,null,1,"DAYS",5010],[38,"CDISCPILOT01","701","701","01-701-1015","2014-01-02","2014-07-02","Placebo",0,63,"<65",1,"WHITE",1,"F","Y","Y","Y","Week 8",8,"WEEK 8",8,63,"2014-03-05","Maze Solution","ACITM10",10,"4","3","1","33.3333333333333","","Y","","2-84",56,7,2,84,"DAYS",5025],[39,"CDISCPILOT01","701","701","01-701-1015","2014-01-02","2014-07-02","Placebo",0,63,"<65",1,"WHITE",1,"F","Y","Y","Y","Week 16",16,"WEEK 16",10,126,"2014-05-07","Maze Solution","ACITM10",10,"4","3","1","33.3333333333333","","Y","","85-140",112,14,85,140,"DAYS",5040],[40,"CDISCPILOT01","701","701","01-701-1015","2014-01-02","2014-07-02","Placebo",0,63,"<65",1,"WHITE",1,"F","Y","Y","Y","Week 24",24,"WEEK 24",12,168,"2014-06-18","Maze Solution","ACITM10",10,"3","3","0","0","","Y","",">140",168,0,141,null,"DAYS",5055],[41,"CDISCPILOT01","701","701","01-701-1015","2014-01-02","2014-07-02","Placebo",0,63,"<65",1,"WHITE",1,"F","Y","Y","Y","Baseline",0,"BASELINE",3,1,"2014-01-02","Spoken Language Ability","ACITM11",11,"1","1","","","Y","Y","","<=1",1,0,null,1,"DAYS",5011],[42,"CDISCPILOT01","701","701","01-701-1015","2014-01-02","2014-07-02","Placebo",0,63,"<65",1,"WHITE",1,"F","Y","Y","Y","Week 8",8,"WEEK 8",8,63,"2014-03-05","Spoken Language Ability","ACITM11",11,"1","1","0","0","","Y","","2-84",56,7,2,84,"DAYS",5026],[43,"CDISCPILOT01","701","701","01-701-1015","2014-01-02","2014-07-02","Placebo",0,63,"<65",1,"WHITE",1,"F","Y","Y","Y","Week 16",16,"WEEK 16",10,126,"2014-05-07","Spoken Language Ability","ACITM11",11,"1","1","0","0","","Y","","85-140",112,14,85,140,"DAYS",5041],[44,"CDISCPILOT01","701","701","01-701-1015","2014-01-02","2014-07-02","Placebo",0,63,"<65",1,"WHITE",1,"F","Y","Y","Y","Week 24",24,"WEEK 24",12,168,"2014-06-18","Spoken Language Ability","ACITM11",11,"0","1","-1","-100","","Y","",">140",168,0,141,null,"DAYS",5056],[45,"CDISCPILOT01","701","701","01-701-1015","2014-01-02","2014-07-02","Placebo",0,63,"<65",1,"WHITE",1,"F","Y","Y","Y","Baseline",0,"BASELINE",3,1,"2014-01-02","Comprehension Of Spoken Language","ACITM12",12,"1","1","","","Y","Y","","<=1",1,0,null,1,"DAYS",5012],[46,"CDISCPILOT01","701","701","01-701-1015","2014-01-02","2014-07-02","Placebo",0,63,"<65",1,"WHITE",1,"F","Y","Y","Y","Week 8",8,"WEEK 8",8,63,"2014-03-05","Comprehension Of Spoken Language","ACITM12",12,"1","1","0","0","","Y","","2-84",56,7,2,84,"DAYS",5027],[47,"CDISCPILOT01","701","701","01-701-1015","2014-01-02","2014-07-02","Placebo",0,63,"<65",1,"WHITE",1,"F","Y","Y","Y","Week 16",16,"WEEK 16",10,126,"2014-05-07","Comprehension Of Spoken Language","ACITM12",12,"1","1","0","0","","Y","","85-140",112,14,85,140,"DAYS",5042],[48,"CDISCPILOT01","701","701","01-701-1015","2014-01-02","2014-07-02","Placebo",0,63,"<65",1,"WHITE",1,"F","Y","Y","Y","Week 24",24,"WEEK 24",12,168,"2014-06-18","Comprehension Of Spoken Language","ACITM12",12,"0","1","-1","-100","","Y","",">140",168,0,141,null,"DAYS",5057],[49,"CDISCPILOT01","701","701","01-701-1015","2014-01-02","2014-07-02","Placebo",0,63,"<65",1,"WHITE",1,"F","Y","Y","Y","Baseline",0,"BASELINE",3,1,"2014-01-02","Word Finding Difficulty In Spontaneous S","ACITM13",13,"1","1","","","Y","Y","","<=1",1,0,null,1,"DAYS",5013],[50,"CDISCPILOT01","701","701","01-701-1015","2014-01-02","2014-07-02","Placebo",0,63,"<65",1,"WHITE",1,"F","Y","Y","Y","Week 8",8,"WEEK 8",8,63,"2014-03-05","Word Finding Difficulty In Spontaneous S","ACITM13",13,"1","1","0","0","","Y","","2-84",56,7,2,84,"DAYS",5028],[51,"CDISCPILOT01","701","701","01-701-1015","2014-01-02","2014-07-02","Placebo",0,63,"<65",1,"WHITE",1,"F","Y","Y","Y","Week 16",16,"WEEK 16",10,126,"2014-05-07","Word Finding Difficulty In Spontaneous S","ACITM13",13,"1","1","0","0","","Y","","85-140",112,14,85,140,"DAYS",5043],[52,"CDISCPILOT01","701","701","01-701-1015","2014-01-02","2014-07-02","Placebo",0,63,"<65",1,"WHITE",1,"F","Y","Y","Y","Week 24",24,"WEEK 24",12,168,"2014-06-18","Word Finding Difficulty In Spontaneous S","ACITM13",13,"0","1","-1","-100","","Y","",">140",168,0,141,null,"DAYS",5058],[53,"CDISCPILOT01","701","701","01-701-1015","2014-01-02","2014-07-02","Placebo",0,63,"<65",1,"WHITE",1,"F","Y","Y","Y","Baseline",0,"BASELINE",3,1,"2014-01-02","Recall Of Test Instructions","ACITM14",14,"1","1","","","Y","Y","","<=1",1,0,null,1,"DAYS",5014],[54,"CDISCPILOT01","701","701","01-701-1015","2014-01-02","2014-07-02","Placebo",0,63,"<65",1,"WHITE",1,"F","Y","Y","Y","Week 8",8,"WEEK 8",8,63,"2014-03-05","Recall Of Test Instructions","ACITM14",14,"1","1","0","0","","Y","","2-84",56,7,2,84,"DAYS",5029],[55,"CDISCPILOT01","701","701","01-701-1015","2014-01-02","2014-07-02","Placebo",0,63,"<65",1,"WHITE",1,"F","Y","Y","Y","Week 16",16,"WEEK 16",10,126,"2014-05-07","Recall Of Test Instructions","ACITM14",14,"1","1","0","0","","Y","","85-140",112,14,85,140,"DAYS",5044],[56,"CDISCPILOT01","701","701","01-701-1015","2014-01-02","2014-07-02","Placebo",0,63,"<65",1,"WHITE",1,"F","Y","Y","Y","Week 24",24,"WEEK 24",12,168,"2014-06-18","Recall Of Test Instructions","ACITM14",14,"0","1","-1","-100","","Y","",">140",168,0,141,null,"DAYS",5059],[57,"CDISCPILOT01","701","701","01-701-1015","2014-01-02","2014-07-02","Placebo",0,63,"<65",1,"WHITE",1,"F","Y","Y","Y","Baseline",0,"BASELINE",3,1,"2014-01-02","Adas-Cog(11) Subscore","ACTOT",15,"13","13","","","Y","Y","","<=1",1,0,null,1,"DAYS",5015],[58,"CDISCPILOT01","701","701","01-701-1015","2014-01-02","2014-07-02","Placebo",0,63,"<65",1,"WHITE",1,"F","Y","Y","Y","Week 8",8,"WEEK 8",8,63,"2014-03-05","Adas-Cog(11) Subscore","ACTOT",15,"8","13","-5","-38.4615384615384","","Y","","2-84",56,7,2,84,"DAYS",5030],[59,"CDISCPILOT01","701","701","01-701-1015","2014-01-02","2014-07-02","Placebo",0,63,"<65",1,"WHITE",1,"F","Y","Y","Y","Week 16",16,"WEEK 16",10,126,"2014-05-07","Adas-Cog(11) Subscore","ACTOT",15,"11","13","-2","-15.3846153846153","","Y","","85-140",112,14,85,140,"DAYS",5045],[60,"CDISCPILOT01","701","701","01-701-1015","2014-01-02","2014-07-02","Placebo",0,63,"<65",1,"WHITE",1,"F","Y","Y","Y","Week 24",24,"WEEK 24",12,168,"2014-06-18","Adas-Cog(11) Subscore","ACTOT",15,"8","13","-5","-38.4615384615384","","Y","",">140",168,0,141,null,"DAYS",5060],[61,"CDISCPILOT01","701","701","01-701-1023","2012-08-05","2012-09-01","Placebo",0,64,"<65",1,"WHITE",1,"M","Y","Y","N","Baseline",0,"BASELINE",3,1,"2012-08-05","Word Recall Task","ACITM01",1,"4","4","","","Y","Y","","<=1",1,0,null,1,"DAYS",5001],[62,"CDISCPILOT01","701","701","01-701-1023","2012-08-05","2012-09-01","Placebo",0,64,"<65",1,"WHITE",1,"M","Y","Y","N","Week 8",8,"WEEK 4",5,29,"2012-09-02","Word Recall Task","ACITM01",1,"2","4","-2","-50","","Y","","2-84",56,27,2,84,"DAYS",5016],[63,"CDISCPILOT01","701","701","01-701-1023","2012-08-05","2012-09-01","Placebo",0,64,"<65",1,"WHITE",1,"M","Y","Y","N","Week 24",24,"RETRIEVAL",201,198,"2013-02-18","Word Recall Task","ACITM01",1,"3","4","-1","-25","","Y","",">140",168,30,141,null,"DAYS",5031],[64,"CDISCPILOT01","701","701","01-701-1023","2012-08-05","2012-09-01","Placebo",0,64,"<65",1,"WHITE",1,"M","Y","Y","N","Baseline",0,"BASELINE",3,1,"2012-08-05","Naming Objects And Fingers (Refer To 5 C","ACITM02",2,"2","2","","","Y","Y","","<=1",1,0,null,1,"DAYS",5002],[65,"CDISCPILOT01","701","701","01-701-1023","2012-08-05","2012-09-01","Placebo",0,64,"<65",1,"WHITE",1,"M","Y","Y","N","Week 8",8,"WEEK 4",5,29,"2012-09-02","Naming Objects And Fingers (Refer To 5 C","ACITM02",2,"2","2","0","0","","Y","","2-84",56,27,2,84,"DAYS",5017],[66,"CDISCPILOT01","701","701","01-701-1023","2012-08-05","2012-09-01","Placebo",0,64,"<65",1,"WHITE",1,"M","Y","Y","N","Week 24",24,"RETRIEVAL",201,198,"2013-02-18","Naming Objects And Fingers (Refer To 5 C","ACITM02",2,"0","2","-2","-100","","Y","",">140",168,30,141,null,"DAYS",5032],[67,"CDISCPILOT01","701","701","01-701-1023","2012-08-05","2012-09-01","Placebo",0,64,"<65",1,"WHITE",1,"M","Y","Y","N","Baseline",0,"BASELINE",3,1,"2012-08-05","Delayed Word Recall","ACITM03",3,"2","2","","","Y","Y","","<=1",1,0,null,1,"DAYS",5003],[68,"CDISCPILOT01","701","701","01-701-1023","2012-08-05","2012-09-01","Placebo",0,64,"<65",1,"WHITE",1,"M","Y","Y","N","Week 8",8,"WEEK 4",5,29,"2012-09-02","Delayed Word Recall","ACITM03",3,"2","2","0","0","","Y","","2-84",56,27,2,84,"DAYS",5018],[69,"CDISCPILOT01","701","701","01-701-1023","2012-08-05","2012-09-01","Placebo",0,64,"<65",1,"WHITE",1,"M","Y","Y","N","Week 24",24,"RETRIEVAL",201,198,"2013-02-18","Delayed Word Recall","ACITM03",3,"3","2","1","50","","Y","",">140",168,30,141,null,"DAYS",5033],[70,"CDISCPILOT01","701","701","01-701-1023","2012-08-05","2012-09-01","Placebo",0,64,"<65",1,"WHITE",1,"M","Y","Y","N","Baseline",0,"BASELINE",3,1,"2012-08-05","Commands","ACITM04",4,"0","0","","","Y","Y","","<=1",1,0,null,1,"DAYS",5004],[71,"CDISCPILOT01","701","701","01-701-1023","2012-08-05","2012-09-01","Placebo",0,64,"<65",1,"WHITE",1,"M","Y","Y","N","Week 8",8,"WEEK 4",5,29,"2012-09-02","Commands","ACITM04",4,"0","0","0","","","Y","","2-84",56,27,2,84,"DAYS",5019],[72,"CDISCPILOT01","701","701","01-701-1023","2012-08-05","2012-09-01","Placebo",0,64,"<65",1,"WHITE",1,"M","Y","Y","N","Week 24",24,"RETRIEVAL",201,198,"2013-02-18","Commands","ACITM04",4,"0","0","0","","","Y","",">140",168,30,141,null,"DAYS",5034],[73,"CDISCPILOT01","701","701","01-701-1023","2012-08-05","2012-09-01","Placebo",0,64,"<65",1,"WHITE",1,"M","Y","Y","N","Baseline",0,"BASELINE",3,1,"2012-08-05","Constructional Praxis","ACITM05",5,"3","3","","","Y","Y","","<=1",1,0,null,1,"DAYS",5005],[74,"CDISCPILOT01","701","701","01-701-1023","2012-08-05","2012-09-01","Placebo",0,64,"<65",1,"WHITE",1,"M","Y","Y","N","Week 8",8,"WEEK 4",5,29,"2012-09-02","Constructional Praxis","ACITM05",5,"2","3","-1","-33.3333333333333","","Y","","2-84",56,27,2,84,"DAYS",5020],[75,"CDISCPILOT01","701","701","01-701-1023","2012-08-05","2012-09-01","Placebo",0,64,"<65",1,"WHITE",1,"M","Y","Y","N","Week 24",24,"RETRIEVAL",201,198,"2013-02-18","Constructional Praxis","ACITM05",5,"4","3","1","33.3333333333333","","Y","",">140",168,30,141,null,"DAYS",5035],[76,"CDISCPILOT01","701","701","01-701-1023","2012-08-05","2012-09-01","Placebo",0,64,"<65",1,"WHITE",1,"M","Y","Y","N","Baseline",0,"BASELINE",3,1,"2012-08-05","Ideational Praxis","ACITM06",6,"0","0","","","Y","Y","","<=1",1,0,null,1,"DAYS",5006],[77,"CDISCPILOT01","701","701","01-701-1023","2012-08-05","2012-09-01","Placebo",0,64,"<65",1,"WHITE",1,"M","Y","Y","N","Week 8",8,"WEEK 4",5,29,"2012-09-02","Ideational Praxis","ACITM06",6,"0","0","0","","","Y","","2-84",56,27,2,84,"DAYS",5021],[78,"CDISCPILOT01","701","701","01-701-1023","2012-08-05","2012-09-01","Placebo",0,64,"<65",1,"WHITE",1,"M","Y","Y","N","Week 24",24,"RETRIEVAL",201,198,"2013-02-18","Ideational Praxis","ACITM06",6,"0","0","0","","","Y","",">140",168,30,141,null,"DAYS",5036],[79,"CDISCPILOT01","701","701","01-701-1023","2012-08-05","2012-09-01","Placebo",0,64,"<65",1,"WHITE",1,"M","Y","Y","N","Baseline",0,"BASELINE",3,1,"2012-08-05","Orientation","ACITM07",7,"2","2","","","Y","Y","","<=1",1,0,null,1,"DAYS",5007],[80,"CDISCPILOT01","701","701","01-701-1023","2012-08-05","2012-09-01","Placebo",0,64,"<65",1,"WHITE",1,"M","Y","Y","N","Week 8",8,"WEEK 4",5,29,"2012-09-02","Orientation","ACITM07",7,"1","2","-1","-50","","Y","","2-84",56,27,2,84,"DAYS",5022],[81,"CDISCPILOT01","701","701","01-701-1023","2012-08-05","2012-09-01","Placebo",0,64,"<65",1,"WHITE",1,"M","Y","Y","N","Week 24",24,"RETRIEVAL",201,198,"2013-02-18","Orientation","ACITM07",7,"0","2","-2","-100","","Y","",">140",168,30,141,null,"DAYS",5037],[82,"CDISCPILOT01","701","701","01-701-1023","2012-08-05","2012-09-01","Placebo",0,64,"<65",1,"WHITE",1,"M","Y","Y","N","Baseline",0,"BASELINE",3,1,"2012-08-05","Word Recognition","ACITM08",8,"2","2","","","Y","Y","","<=1",1,0,null,1,"DAYS",5008],[83,"CDISCPILOT01","701","701","01-701-1023","2012-08-05","2012-09-01","Placebo",0,64,"<65",1,"WHITE",1,"M","Y","Y","N","Week 8",8,"WEEK 4",5,29,"2012-09-02","Word Recognition","ACITM08",8,"1","2","-1","-50","","Y","","2-84",56,27,2,84,"DAYS",5023],[84,"CDISCPILOT01","701","701","01-701-1023","2012-08-05","2012-09-01","Placebo",0,64,"<65",1,"WHITE",1,"M","Y","Y","N","Week 24",24,"RETRIEVAL",201,198,"2013-02-18","Word Recognition","ACITM08",8,"1","2","-1","-50","","Y","",">140",168,30,141,null,"DAYS",5038],[85,"CDISCPILOT01","701","701","01-701-1023","2012-08-05","2012-09-01","Placebo",0,64,"<65",1,"WHITE",1,"M","Y","Y","N","Baseline",0,"BASELINE",3,1,"2012-08-05","Attention/Visual Search Task","ACITM09",9,"39","39","","","Y","Y","","<=1",1,0,null,1,"DAYS",5009],[86,"CDISCPILOT01","701","701","01-701-1023","2012-08-05","2012-09-01","Placebo",0,64,"<65",1,"WHITE",1,"M","Y","Y","N","Week 8",8,"WEEK 4",5,29,"2012-09-02","Attention/Visual Search Task","ACITM09",9,"40","39","1","2.56410256410256","","Y","","2-84",56,27,2,84,"DAYS",5024],[87,"CDISCPILOT01","701","701","01-701-1023","2012-08-05","2012-09-01","Placebo",0,64,"<65",1,"WHITE",1,"M","Y","Y","N","Week 24",24,"RETRIEVAL",201,198,"2013-02-18","Attention/Visual Search Task","ACITM09",9,"37","39","-2","-5.12820512820512","","Y","",">140",168,30,141,null,"DAYS",5039],[88,"CDISCPILOT01","701","701","01-701-1023","2012-08-05","2012-09-01","Placebo",0,64,"<65",1,"WHITE",1,"M","Y","Y","N","Baseline",0,"BASELINE",3,1,"2012-08-05","Maze Solution","ACITM10",10,"5","5","","","Y","Y","","<=1",1,0,null,1,"DAYS",5010],[89,"CDISCPILOT01","701","701","01-701-1023","2012-08-05","2012-09-01","Placebo",0,64,"<65",1,"WHITE",1,"M","Y","Y","N","Week 8",8,"WEEK 4",5,29,"2012-09-02","Maze Solution","ACITM10",10,"5","5","0","0","","Y","","2-84",56,27,2,84,"DAYS",5025],[90,"CDISCPILOT01","701","701","01-701-1023","2012-08-05","2012-09-01","Placebo",0,64,"<65",1,"WHITE",1,"M","Y","Y","N","Week 24",24,"RETRIEVAL",201,198,"2013-02-18","Maze Solution","ACITM10",10,"3","5","-2","-40","","Y","",">140",168,30,141,null,"DAYS",5040],[91,"CDISCPILOT01","701","701","01-701-1023","2012-08-05","2012-09-01","Placebo",0,64,"<65",1,"WHITE",1,"M","Y","Y","N","Baseline",0,"BASELINE",3,1,"2012-08-05","Spoken Language Ability","ACITM11",11,"0","0","","","Y","Y","","<=1",1,0,null,1,"DAYS",5011],[92,"CDISCPILOT01","701","701","01-701-1023","2012-08-05","2012-09-01","Placebo",0,64,"<65",1,"WHITE",1,"M","Y","Y","N","Week 8",8,"WEEK 4",5,29,"2012-09-02","Spoken Language Ability","ACITM11",11,"0","0","0","","","Y","","2-84",56,27,2,84,"DAYS",5026],[93,"CDISCPILOT01","701","701","01-701-1023","2012-08-05","2012-09-01","Placebo",0,64,"<65",1,"WHITE",1,"M","Y","Y","N","Week 24",24,"RETRIEVAL",201,198,"2013-02-18","Spoken Language Ability","ACITM11",11,"1","0","1","","","Y","",">140",168,30,141,null,"DAYS",5041],[94,"CDISCPILOT01","701","701","01-701-1023","2012-08-05","2012-09-01","Placebo",0,64,"<65",1,"WHITE",1,"M","Y","Y","N","Baseline",0,"BASELINE",3,1,"2012-08-05","Comprehension Of Spoken Language","ACITM12",12,"0","0","","","Y","Y","","<=1",1,0,null,1,"DAYS",5012],[95,"CDISCPILOT01","701","701","01-701-1023","2012-08-05","2012-09-01","Placebo",0,64,"<65",1,"WHITE",1,"M","Y","Y","N","Week 8",8,"WEEK 4",5,29,"2012-09-02","Comprehension Of Spoken Language","ACITM12",12,"0","0","0","","","Y","","2-84",56,27,2,84,"DAYS",5027],[96,"CDISCPILOT01","701","701","01-701-1023","2012-08-05","2012-09-01","Placebo",0,64,"<65",1,"WHITE",1,"M","Y","Y","N","Week 24",24,"RETRIEVAL",201,198,"2013-02-18","Comprehension Of Spoken Language","ACITM12",12,"1","0","1","","","Y","",">140",168,30,141,null,"DAYS",5042],[97,"CDISCPILOT01","701","701","01-701-1023","2012-08-05","2012-09-01","Placebo",0,64,"<65",1,"WHITE",1,"M","Y","Y","N","Baseline",0,"BASELINE",3,1,"2012-08-05","Word Finding Difficulty In Spontaneous S","ACITM13",13,"0","0","","","Y","Y","","<=1",1,0,null,1,"DAYS",5013],[98,"CDISCPILOT01","701","701","01-701-1023","2012-08-05","2012-09-01","Placebo",0,64,"<65",1,"WHITE",1,"M","Y","Y","N","Week 8",8,"WEEK 4",5,29,"2012-09-02","Word Finding Difficulty In Spontaneous S","ACITM13",13,"0","0","0","","","Y","","2-84",56,27,2,84,"DAYS",5028],[99,"CDISCPILOT01","701","701","01-701-1023","2012-08-05","2012-09-01","Placebo",0,64,"<65",1,"WHITE",1,"M","Y","Y","N","Week 24",24,"RETRIEVAL",201,198,"2013-02-18","Word Finding Difficulty In Spontaneous S","ACITM13",13,"1","0","1","","","Y","",">140",168,30,141,null,"DAYS",5043],[100,"CDISCPILOT01","701","701","01-701-1023","2012-08-05","2012-09-01","Placebo",0,64,"<65",1,"WHITE",1,"M","Y","Y","N","Baseline",0,"BASELINE",3,1,"2012-08-05","Recall Of Test Instructions","ACITM14",14,"0","0","","","Y","Y","","<=1",1,0,null,1,"DAYS",5014],[101,"CDISCPILOT01","701","701","01-701-1023","2012-08-05","2012-09-01","Placebo",0,64,"<65",1,"WHITE",1,"M","Y","Y","N","Week 8",8,"WEEK 4",5,29,"2012-09-02","Recall Of Test Instructions","ACITM14",14,"0","0","0","","","Y","","2-84",56,27,2,84,"DAYS",5029],[102,"CDISCPILOT01","701","701","01-701-1023","2012-08-05","2012-09-01","Placebo",0,64,"<65",1,"WHITE",1,"M","Y","Y","N","Week 24",24,"RETRIEVAL",201,198,"2013-02-18","Recall Of Test Instructions","ACITM14",14,"1","0","1","","","Y","",">140",168,30,141,null,"DAYS",5044],[103,"CDISCPILOT01","701","701","01-701-1023","2012-08-05","2012-09-01","Placebo",0,64,"<65",1,"WHITE",1,"M","Y","Y","N","Baseline",0,"BASELINE",3,1,"2012-08-05","Adas-Cog(11) Subscore","ACTOT",15,"13","13","","","Y","Y","","<=1",1,0,null,1,"DAYS",5015],[104,"CDISCPILOT01","701","701","01-701-1023","2012-08-05","2012-09-01","Placebo",0,64,"<65",1,"WHITE",1,"M","Y","Y","N","Week 8",8,"WEEK 4",5,29,"2012-09-02","Adas-Cog(11) Subscore","ACTOT",15,"8","13","-5","-38.4615384615384","","Y","","2-84",56,27,2,84,"DAYS",5030],[105,"CDISCPILOT01","701","701","01-701-1023","2012-08-05","2012-09-01","Placebo",0,64,"<65",1,"WHITE",1,"M","Y","Y","N","Week 16",16,"WEEK 4",5,29,"2012-09-02","Adas-Cog(11) Subscore","ACTOT",15,"8","13","-5","-38.4615384615384","","Y","LOCF","85-140",112,83,85,140,"DAYS",5030],[106,"CDISCPILOT01","701","701","01-701-1023","2012-08-05","2012-09-01","Placebo",0,64,"<65",1,"WHITE",1,"M","Y","Y","N","Week 24",24,"RETRIEVAL",201,198,"2013-02-18","Adas-Cog(11) Subscore","ACTOT",15,"12","13","-1","-7.69230769230769","","Y","",">140",168,30,141,null,"DAYS",5045],[107,"CDISCPILOT01","701","701","01-701-1028","2013-07-19","2014-01-14","Xanomeline High Dose",81,71,"65-80",2,"WHITE",1,"M","Y","Y","Y","Baseline",0,"BASELINE",3,1,"2013-07-19","Word Recall Task","ACITM01",1,"1","1","","","Y","Y","","<=1",1,0,null,1,"DAYS",5001],[108,"CDISCPILOT01","701","701","01-701-1028","2013-07-19","2014-01-14","Xanomeline High Dose",81,71,"65-80",2,"WHITE",1,"M","Y","Y","Y","Week 8",8,"WEEK 8",8,54,"2013-09-10","Word Recall Task","ACITM01",1,"1","1","0","0","","Y","","2-84",56,2,2,84,"DAYS",5016],[109,"CDISCPILOT01","701","701","01-701-1028","2013-07-19","2014-01-14","Xanomeline High Dose",81,71,"65-80",2,"WHITE",1,"M","Y","Y","Y","Week 16",16,"WEEK 16",10,111,"2013-11-06","Word Recall Task","ACITM01",1,"3","1","2","200","","Y","","85-140",112,1,85,140,"DAYS",5031],[110,"CDISCPILOT01","701","701","01-701-1028","2013-07-19","2014-01-14","Xanomeline High Dose",81,71,"65-80",2,"WHITE",1,"M","Y","Y","Y","Week 24",24,"WEEK 24",12,172,"2014-01-06","Word Recall Task","ACITM01",1,"2","1","1","100","","Y","",">140",168,4,141,null,"DAYS",5046],[111,"CDISCPILOT01","701","701","01-701-1028","2013-07-19","2014-01-14","Xanomeline High Dose",81,71,"65-80",2,"WHITE",1,"M","Y","Y","Y","Baseline",0,"BASELINE",3,1,"2013-07-19","Naming Objects And Fingers (Refer To 5 C","ACITM02",2,"0","0","","","Y","Y","","<=1",1,0,null,1,"DAYS",5002],[112,"CDISCPILOT01","701","701","01-701-1028","2013-07-19","2014-01-14","Xanomeline High Dose",81,71,"65-80",2,"WHITE",1,"M","Y","Y","Y","Week 8",8,"WEEK 8",8,54,"2013-09-10","Naming Objects And Fingers (Refer To 5 C","ACITM02",2,"0","0","0","","","Y","","2-84",56,2,2,84,"DAYS",5017],[113,"CDISCPILOT01","701","701","01-701-1028","2013-07-19","2014-01-14","Xanomeline High Dose",81,71,"65-80",2,"WHITE",1,"M","Y","Y","Y","Week 16",16,"WEEK 16",10,111,"2013-11-06","Naming Objects And Fingers (Refer To 5 C","ACITM02",2,"0","0","0","","","Y","","85-140",112,1,85,140,"DAYS",5032],[114,"CDISCPILOT01","701","701","01-701-1028","2013-07-19","2014-01-14","Xanomeline High Dose",81,71,"65-80",2,"WHITE",1,"M","Y","Y","Y","Week 24",24,"WEEK 24",12,172,"2014-01-06","Naming Objects And Fingers (Refer To 5 C","ACITM02",2,"0","0","0","","","Y","",">140",168,4,141,null,"DAYS",5047],[115,"CDISCPILOT01","701","701","01-701-1028","2013-07-19","2014-01-14","Xanomeline High Dose",81,71,"65-80",2,"WHITE",1,"M","Y","Y","Y","Baseline",0,"BASELINE",3,1,"2013-07-19","Delayed Word Recall","ACITM03",3,"1","1","","","Y","Y","","<=1",1,0,null,1,"DAYS",5003],[116,"CDISCPILOT01","701","701","01-701-1028","2013-07-19","2014-01-14","Xanomeline High Dose",81,71,"65-80",2,"WHITE",1,"M","Y","Y","Y","Week 8",8,"WEEK 8",8,54,"2013-09-10","Delayed Word Recall","ACITM03",3,"0","1","-1","-100","","Y","","2-84",56,2,2,84,"DAYS",5018],[117,"CDISCPILOT01","701","701","01-701-1028","2013-07-19","2014-01-14","Xanomeline High Dose",81,71,"65-80",2,"WHITE",1,"M","Y","Y","Y","Week 16",16,"WEEK 16",10,111,"2013-11-06","Delayed Word Recall","ACITM03",3,"4","1","3","300","","Y","","85-140",112,1,85,140,"DAYS",5033],[118,"CDISCPILOT01","701","701","01-701-1028","2013-07-19","2014-01-14","Xanomeline High Dose",81,71,"65-80",2,"WHITE",1,"M","Y","Y","Y","Week 24",24,"WEEK 24",12,172,"2014-01-06","Delayed Word Recall","ACITM03",3,"1","1","0","0","","Y","",">140",168,4,141,null,"DAYS",5048],[119,"CDISCPILOT01","701","701","01-701-1028","2013-07-19","2014-01-14","Xanomeline High Dose",81,71,"65-80",2,"WHITE",1,"M","Y","Y","Y","Baseline",0,"BASELINE",3,1,"2013-07-19","Commands","ACITM04",4,"0","0","","","Y","Y","","<=1",1,0,null,1,"DAYS",5004],[120,"CDISCPILOT01","701","701","01-701-1028","2013-07-19","2014-01-14","Xanomeline High Dose",81,71,"65-80",2,"WHITE",1,"M","Y","Y","Y","Week 8",8,"WEEK 8",8,54,"2013-09-10","Commands","ACITM04",4,"0","0","0","","","Y","","2-84",56,2,2,84,"DAYS",5019],[121,"CDISCPILOT01","701","701","01-701-1028","2013-07-19","2014-01-14","Xanomeline High Dose",81,71,"65-80",2,"WHITE",1,"M","Y","Y","Y","Week 16",16,"WEEK 16",10,111,"2013-11-06","Commands","ACITM04",4,"0","0","0","","","Y","","85-140",112,1,85,140,"DAYS",5034],[122,"CDISCPILOT01","701","701","01-701-1028","2013-07-19","2014-01-14","Xanomeline High Dose",81,71,"65-80",2,"WHITE",1,"M","Y","Y","Y","Week 24",24,"WEEK 24",12,172,"2014-01-06","Commands","ACITM04",4,"0","0","0","","","Y","",">140",168,4,141,null,"DAYS",5049],[123,"CDISCPILOT01","701","701","01-701-1028","2013-07-19","2014-01-14","Xanomeline High Dose",81,71,"65-80",2,"WHITE",1,"M","Y","Y","Y","Baseline",0,"BASELINE",3,1,"2013-07-19","Constructional Praxis","ACITM05",5,"0","0","","","Y","Y","","<=1",1,0,null,1,"DAYS",5005],[124,"CDISCPILOT01","701","701","01-701-1028","2013-07-19","2014-01-14","Xanomeline High Dose",81,71,"65-80",2,"WHITE",1,"M","Y","Y","Y","Week 8",8,"WEEK 8",8,54,"2013-09-10","Constructional Praxis","ACITM05",5,"0","0","0","","","Y","","2-84",56,2,2,84,"DAYS",5020],[125,"CDISCPILOT01","701","701","01-701-1028","2013-07-19","2014-01-14","Xanomeline High Dose",81,71,"65-80",2,"WHITE",1,"M","Y","Y","Y","Week 16",16,"WEEK 16",10,111,"2013-11-06","Constructional Praxis","ACITM05",5,"0","0","0","","","Y","","85-140",112,1,85,140,"DAYS",5035],[126,"CDISCPILOT01","701","701","01-701-1028","2013-07-19","2014-01-14","Xanomeline High Dose",81,71,"65-80",2,"WHITE",1,"M","Y","Y","Y","Week 24",24,"WEEK 24",12,172,"2014-01-06","Constructional Praxis","ACITM05",5,"0","0","0","","","Y","",">140",168,4,141,null,"DAYS",5050],[127,"CDISCPILOT01","701","701","01-701-1028","2013-07-19","2014-01-14","Xanomeline High Dose",81,71,"65-80",2,"WHITE",1,"M","Y","Y","Y","Baseline",0,"BASELINE",3,1,"2013-07-19","Ideational Praxis","ACITM06",6,"0","0","","","Y","Y","","<=1",1,0,null,1,"DAYS",5006],[128,"CDISCPILOT01","701","701","01-701-1028","2013-07-19","2014-01-14","Xanomeline High Dose",81,71,"65-80",2,"WHITE",1,"M","Y","Y","Y","Week 8",8,"WEEK 8",8,54,"2013-09-10","Ideational Praxis","ACITM06",6,"0","0","0","","","Y","","2-84",56,2,2,84,"DAYS",5021],[129,"CDISCPILOT01","701","701","01-701-1028","2013-07-19","2014-01-14","Xanomeline High Dose",81,71,"65-80",2,"WHITE",1,"M","Y","Y","Y","Week 16",16,"WEEK 16",10,111,"2013-11-06","Ideational Praxis","ACITM06",6,"0","0","0","","","Y","","85-140",112,1,85,140,"DAYS",5036],[130,"CDISCPILOT01","701","701","01-701-1028","2013-07-19","2014-01-14","Xanomeline High Dose",81,71,"65-80",2,"WHITE",1,"M","Y","Y","Y","Week 24",24,"WEEK 24",12,172,"2014-01-06","Ideational Praxis","ACITM06",6,"0","0","0","","","Y","",">140",168,4,141,null,"DAYS",5051],[131,"CDISCPILOT01","701","701","01-701-1028","2013-07-19","2014-01-14","Xanomeline High Dose",81,71,"65-80",2,"WHITE",1,"M","Y","Y","Y","Baseline",0,"BASELINE",3,1,"2013-07-19","Orientation","ACITM07",7,"0","0","","","Y","Y","","<=1",1,0,null,1,"DAYS",5007],[132,"CDISCPILOT01","701","701","01-701-1028","2013-07-19","2014-01-14","Xanomeline High Dose",81,71,"65-80",2,"WHITE",1,"M","Y","Y","Y","Week 8",8,"WEEK 8",8,54,"2013-09-10","Orientation","ACITM07",7,"0","0","0","","","Y","","2-84",56,2,2,84,"DAYS",5022],[133,"CDISCPILOT01","701","701","01-701-1028","2013-07-19","2014-01-14","Xanomeline High Dose",81,71,"65-80",2,"WHITE",1,"M","Y","Y","Y","Week 16",16,"WEEK 16",10,111,"2013-11-06","Orientation","ACITM07",7,"0","0","0","","","Y","","85-140",112,1,85,140,"DAYS",5037],[134,"CDISCPILOT01","701","701","01-701-1028","2013-07-19","2014-01-14","Xanomeline High Dose",81,71,"65-80",2,"WHITE",1,"M","Y","Y","Y","Week 24",24,"WEEK 24",12,172,"2014-01-06","Orientation","ACITM07",7,"0","0","0","","","Y","",">140",168,4,141,null,"DAYS",5052],[135,"CDISCPILOT01","701","701","01-701-1028","2013-07-19","2014-01-14","Xanomeline High Dose",81,71,"65-80",2,"WHITE",1,"M","Y","Y","Y","Baseline",0,"BASELINE",3,1,"2013-07-19","Word Recognition","ACITM08",8,"2","2","","","Y","Y","","<=1",1,0,null,1,"DAYS",5008],[136,"CDISCPILOT01","701","701","01-701-1028","2013-07-19","2014-01-14","Xanomeline High Dose",81,71,"65-80",2,"WHITE",1,"M","Y","Y","Y","Week 8",8,"WEEK 8",8,54,"2013-09-10","Word Recognition","ACITM08",8,"1","2","-1","-50","","Y","","2-84",56,2,2,84,"DAYS",5023],[137,"CDISCPILOT01","701","701","01-701-1028","2013-07-19","2014-01-14","Xanomeline High Dose",81,71,"65-80",2,"WHITE",1,"M","Y","Y","Y","Week 16",16,"WEEK 16",10,111,"2013-11-06","Word Recognition","ACITM08",8,"1","2","-1","-50","","Y","","85-140",112,1,85,140,"DAYS",5038],[138,"CDISCPILOT01","701","701","01-701-1028","2013-07-19","2014-01-14","Xanomeline High Dose",81,71,"65-80",2,"WHITE",1,"M","Y","Y","Y","Week 24",24,"WEEK 24",12,172,"2014-01-06","Word Recognition","ACITM08",8,"1","2","-1","-50","","Y","",">140",168,4,141,null,"DAYS",5053],[139,"CDISCPILOT01","701","701","01-701-1028","2013-07-19","2014-01-14","Xanomeline High Dose",81,71,"65-80",2,"WHITE",1,"M","Y","Y","Y","Baseline",0,"BASELINE",3,1,"2013-07-19","Attention/Visual Search Task","ACITM09",9,"24","24","","","Y","Y","","<=1",1,0,null,1,"DAYS",5009],[140,"CDISCPILOT01","701","701","01-701-1028","2013-07-19","2014-01-14","Xanomeline High Dose",81,71,"65-80",2,"WHITE",1,"M","Y","Y","Y","Week 8",8,"WEEK 8",8,54,"2013-09-10","Attention/Visual Search Task","ACITM09",9,"25","24","1","4.16666666666666","","Y","","2-84",56,2,2,84,"DAYS",5024],[141,"CDISCPILOT01","701","701","01-701-1028","2013-07-19","2014-01-14","Xanomeline High Dose",81,71,"65-80",2,"WHITE",1,"M","Y","Y","Y","Week 16",16,"WEEK 16",10,111,"2013-11-06","Attention/Visual Search Task","ACITM09",9,"34","24","10","41.6666666666666","","Y","","85-140",112,1,85,140,"DAYS",5039],[142,"CDISCPILOT01","701","701","01-701-1028","2013-07-19","2014-01-14","Xanomeline High Dose",81,71,"65-80",2,"WHITE",1,"M","Y","Y","Y","Week 24",24,"WEEK 24",12,172,"2014-01-06","Attention/Visual Search Task","ACITM09",9,"26","24","2","8.33333333333333","","Y","",">140",168,4,141,null,"DAYS",5054],[143,"CDISCPILOT01","701","701","01-701-1028","2013-07-19","2014-01-14","Xanomeline High Dose",81,71,"65-80",2,"WHITE",1,"M","Y","Y","Y","Baseline",0,"BASELINE",3,1,"2013-07-19","Maze Solution","ACITM10",10,"4","4","","","Y","Y","","<=1",1,0,null,1,"DAYS",5010],[144,"CDISCPILOT01","701","701","01-701-1028","2013-07-19","2014-01-14","Xanomeline High Dose",81,71,"65-80",2,"WHITE",1,"M","Y","Y","Y","Week 8",8,"WEEK 8",8,54,"2013-09-10","Maze Solution","ACITM10",10,"5","4","1","25","","Y","","2-84",56,2,2,84,"DAYS",5025],[145,"CDISCPILOT01","701","701","01-701-1028","2013-07-19","2014-01-14","Xanomeline High Dose",81,71,"65-80",2,"WHITE",1,"M","Y","Y","Y","Week 16",16,"WEEK 16",10,111,"2013-11-06","Maze Solution","ACITM10",10,"5","4","1","25","","Y","","85-140",112,1,85,140,"DAYS",5040],[146,"CDISCPILOT01","701","701","01-701-1028","2013-07-19","2014-01-14","Xanomeline High Dose",81,71,"65-80",2,"WHITE",1,"M","Y","Y","Y","Week 24",24,"WEEK 24",12,172,"2014-01-06","Maze Solution","ACITM10",10,"5","4","1","25","","Y","",">140",168,4,141,null,"DAYS",5055],[147,"CDISCPILOT01","701","701","01-701-1028","2013-07-19","2014-01-14","Xanomeline High Dose",81,71,"65-80",2,"WHITE",1,"M","Y","Y","Y","Baseline",0,"BASELINE",3,1,"2013-07-19","Spoken Language Ability","ACITM11",11,"0","0","","","Y","Y","","<=1",1,0,null,1,"DAYS",5011],[148,"CDISCPILOT01","701","701","01-701-1028","2013-07-19","2014-01-14","Xanomeline High Dose",81,71,"65-80",2,"WHITE",1,"M","Y","Y","Y","Week 8",8,"WEEK 8",8,54,"2013-09-10","Spoken Language Ability","ACITM11",11,"0","0","0","","","Y","","2-84",56,2,2,84,"DAYS",5026],[149,"CDISCPILOT01","701","701","01-701-1028","2013-07-19","2014-01-14","Xanomeline High Dose",81,71,"65-80",2,"WHITE",1,"M","Y","Y","Y","Week 16",16,"WEEK 16",10,111,"2013-11-06","Spoken Language Ability","ACITM11",11,"0","0","0","","","Y","","85-140",112,1,85,140,"DAYS",5041],[150,"CDISCPILOT01","701","701","01-701-1028","2013-07-19","2014-01-14","Xanomeline High Dose",81,71,"65-80",2,"WHITE",1,"M","Y","Y","Y","Week 24",24,"WEEK 24",12,172,"2014-01-06","Spoken Language Ability","ACITM11",11,"0","0","0","","","Y","",">140",168,4,141,null,"DAYS",5056],[151,"CDISCPILOT01","701","701","01-701-1028","2013-07-19","2014-01-14","Xanomeline High Dose",81,71,"65-80",2,"WHITE",1,"M","Y","Y","Y","Baseline",0,"BASELINE",3,1,"2013-07-19","Comprehension Of Spoken Language","ACITM12",12,"0","0","","","Y","Y","","<=1",1,0,null,1,"DAYS",5012],[152,"CDISCPILOT01","701","701","01-701-1028","2013-07-19","2014-01-14","Xanomeline High Dose",81,71,"65-80",2,"WHITE",1,"M","Y","Y","Y","Week 8",8,"WEEK 8",8,54,"2013-09-10","Comprehension Of Spoken Language","ACITM12",12,"0","0","0","","","Y","","2-84",56,2,2,84,"DAYS",5027],[153,"CDISCPILOT01","701","701","01-701-1028","2013-07-19","2014-01-14","Xanomeline High Dose",81,71,"65-80",2,"WHITE",1,"M","Y","Y","Y","Week 16",16,"WEEK 16",10,111,"2013-11-06","Comprehension Of Spoken Language","ACITM12",12,"0","0","0","","","Y","","85-140",112,1,85,140,"DAYS",5042],[154,"CDISCPILOT01","701","701","01-701-1028","2013-07-19","2014-01-14","Xanomeline High Dose",81,71,"65-80",2,"WHITE",1,"M","Y","Y","Y","Week 24",24,"WEEK 24",12,172,"2014-01-06","Comprehension Of Spoken Language","ACITM12",12,"0","0","0","","","Y","",">140",168,4,141,null,"DAYS",5057],[155,"CDISCPILOT01","701","701","01-701-1028","2013-07-19","2014-01-14","Xanomeline High Dose",81,71,"65-80",2,"WHITE",1,"M","Y","Y","Y","Baseline",0,"BASELINE",3,1,"2013-07-19","Word Finding Difficulty In Spontaneous S","ACITM13",13,"0","0","","","Y","Y","","<=1",1,0,null,1,"DAYS",5013],[156,"CDISCPILOT01","701","701","01-701-1028","2013-07-19","2014-01-14","Xanomeline High Dose",81,71,"65-80",2,"WHITE",1,"M","Y","Y","Y","Week 8",8,"WEEK 8",8,54,"2013-09-10","Word Finding Difficulty In Spontaneous S","ACITM13",13,"0","0","0","","","Y","","2-84",56,2,2,84,"DAYS",5028],[157,"CDISCPILOT01","701","701","01-701-1028","2013-07-19","2014-01-14","Xanomeline High Dose",81,71,"65-80",2,"WHITE",1,"M","Y","Y","Y","Week 16",16,"WEEK 16",10,111,"2013-11-06","Word Finding Difficulty In Spontaneous S","ACITM13",13,"0","0","0","","","Y","","85-140",112,1,85,140,"DAYS",5043],[158,"CDISCPILOT01","701","701","01-701-1028","2013-07-19","2014-01-14","Xanomeline High Dose",81,71,"65-80",2,"WHITE",1,"M","Y","Y","Y","Week 24",24,"WEEK 24",12,172,"2014-01-06","Word Finding Difficulty In Spontaneous S","ACITM13",13,"0","0","0","","","Y","",">140",168,4,141,null,"DAYS",5058],[159,"CDISCPILOT01","701","701","01-701-1028","2013-07-19","2014-01-14","Xanomeline High Dose",81,71,"65-80",2,"WHITE",1,"M","Y","Y","Y","Baseline",0,"BASELINE",3,1,"2013-07-19","Recall Of Test Instructions","ACITM14",14,"0","0","","","Y","Y","","<=1",1,0,null,1,"DAYS",5014],[160,"CDISCPILOT01","701","701","01-701-1028","2013-07-19","2014-01-14","Xanomeline High Dose",81,71,"65-80",2,"WHITE",1,"M","Y","Y","Y","Week 8",8,"WEEK 8",8,54,"2013-09-10","Recall Of Test Instructions","ACITM14",14,"0","0","0","","","Y","","2-84",56,2,2,84,"DAYS",5029],[161,"CDISCPILOT01","701","701","01-701-1028","2013-07-19","2014-01-14","Xanomeline High Dose",81,71,"65-80",2,"WHITE",1,"M","Y","Y","Y","Week 16",16,"WEEK 16",10,111,"2013-11-06","Recall Of Test Instructions","ACITM14",14,"0","0","0","","","Y","","85-140",112,1,85,140,"DAYS",5044],[162,"CDISCPILOT01","701","701","01-701-1028","2013-07-19","2014-01-14","Xanomeline High Dose",81,71,"65-80",2,"WHITE",1,"M","Y","Y","Y","Week 24",24,"WEEK 24",12,172,"2014-01-06","Recall Of Test Instructions","ACITM14",14,"0","0","0","","","Y","",">140",168,4,141,null,"DAYS",5059],[163,"CDISCPILOT01","701","701","01-701-1028","2013-07-19","2014-01-14","Xanomeline High Dose",81,71,"65-80",2,"WHITE",1,"M","Y","Y","Y","Baseline",0,"BASELINE",3,1,"2013-07-19","Adas-Cog(11) Subscore","ACTOT",15,"3","3","","","Y","Y","","<=1",1,0,null,1,"DAYS",5015],[164,"CDISCPILOT01","701","701","01-701-1028","2013-07-19","2014-01-14","Xanomeline High Dose",81,71,"65-80",2,"WHITE",1,"M","Y","Y","Y","Week 8",8,"WEEK 8",8,54,"2013-09-10","Adas-Cog(11) Subscore","ACTOT",15,"2","3","-1","-33.3333333333333","","Y","","2-84",56,2,2,84,"DAYS",5030],[165,"CDISCPILOT01","701","701","01-701-1028","2013-07-19","2014-01-14","Xanomeline High Dose",81,71,"65-80",2,"WHITE",1,"M","Y","Y","Y","Week 16",16,"WEEK 16",10,111,"2013-11-06","Adas-Cog(11) Subscore","ACTOT",15,"4","3","1","33.3333333333333","","Y","","85-140",112,1,85,140,"DAYS",5045],[166,"CDISCPILOT01","701","701","01-701-1028","2013-07-19","2014-01-14","Xanomeline High Dose",81,71,"65-80",2,"WHITE",1,"M","Y","Y","Y","Week 24",24,"WEEK 24",12,172,"2014-01-06","Adas-Cog(11) Subscore","ACTOT",15,"3","3","0","0","","Y","",">140",168,4,141,null,"DAYS",5060],[167,"CDISCPILOT01","701","701","01-701-1033","2014-03-18","2014-03-31","Xanomeline Low Dose",54,74,"65-80",2,"WHITE",1,"M","Y","Y","N","Baseline",0,"BASELINE",3,1,"2014-03-18","Word Recall Task","ACITM01",1,"5","5","","","Y","Y","","<=1",1,0,null,1,"DAYS",5001],[168,"CDISCPILOT01","701","701","01-701-1033","2014-03-18","2014-03-31","Xanomeline Low Dose",54,74,"65-80",2,"WHITE",1,"M","Y","Y","N","Week 8",8,"WEEK 4",5,28,"2014-04-14","Word Recall Task","ACITM01",1,"5","5","0","0","","Y","","2-84",56,28,2,84,"DAYS",5016],[169,"CDISCPILOT01","701","701","01-701-1033","2014-03-18","2014-03-31","Xanomeline Low Dose",54,74,"65-80",2,"WHITE",1,"M","Y","Y","N","Week 24",24,"RETRIEVAL",201,182,"2014-09-15","Word Recall Task","ACITM01",1,"6","5","1","20","","Y","",">140",168,14,141,null,"DAYS",5031],[170,"CDISCPILOT01","701","701","01-701-1033","2014-03-18","2014-03-31","Xanomeline Low Dose",54,74,"65-80",2,"WHITE",1,"M","Y","Y","N","Baseline",0,"BASELINE",3,1,"2014-03-18","Naming Objects And Fingers (Refer To 5 C","ACITM02",2,"0","0","","","Y","Y","","<=1",1,0,null,1,"DAYS",5002],[171,"CDISCPILOT01","701","701","01-701-1033","2014-03-18","2014-03-31","Xanomeline Low Dose",54,74,"65-80",2,"WHITE",1,"M","Y","Y","N","Week 8",8,"WEEK 4",5,28,"2014-04-14","Naming Objects And Fingers (Refer To 5 C","ACITM02",2,"0","0","0","","","Y","","2-84",56,28,2,84,"DAYS",5017],[172,"CDISCPILOT01","701","701","01-701-1033","2014-03-18","2014-03-31","Xanomeline Low Dose",54,74,"65-80",2,"WHITE",1,"M","Y","Y","N","Week 24",24,"RETRIEVAL",201,182,"2014-09-15","Naming Objects And Fingers (Refer To 5 C","ACITM02",2,"0","0","0","","","Y","",">140",168,14,141,null,"DAYS",5032],[173,"CDISCPILOT01","701","701","01-701-1033","2014-03-18","2014-03-31","Xanomeline Low Dose",54,74,"65-80",2,"WHITE",1,"M","Y","Y","N","Baseline",0,"BASELINE",3,1,"2014-03-18","Delayed Word Recall","ACITM03",3,"6","6","","","Y","Y","","<=1",1,0,null,1,"DAYS",5003],[174,"CDISCPILOT01","701","701","01-701-1033","2014-03-18","2014-03-31","Xanomeline Low Dose",54,74,"65-80",2,"WHITE",1,"M","Y","Y","N","Week 8",8,"WEEK 4",5,28,"2014-04-14","Delayed Word Recall","ACITM03",3,"3","6","-3","-50","","Y","","2-84",56,28,2,84,"DAYS",5018],[175,"CDISCPILOT01","701","701","01-701-1033","2014-03-18","2014-03-31","Xanomeline Low Dose",54,74,"65-80",2,"WHITE",1,"M","Y","Y","N","Week 24",24,"RETRIEVAL",201,182,"2014-09-15","Delayed Word Recall","ACITM03",3,"6","6","0","0","","Y","",">140",168,14,141,null,"DAYS",5033],[176,"CDISCPILOT01","701","701","01-701-1033","2014-03-18","2014-03-31","Xanomeline Low Dose",54,74,"65-80",2,"WHITE",1,"M","Y","Y","N","Baseline",0,"BASELINE",3,1,"2014-03-18","Commands","ACITM04",4,"0","0","","","Y","Y","","<=1",1,0,null,1,"DAYS",5004],[177,"CDISCPILOT01","701","701","01-701-1033","2014-03-18","2014-03-31","Xanomeline Low Dose",54,74,"65-80",2,"WHITE",1,"M","Y","Y","N","Week 8",8,"WEEK 4",5,28,"2014-04-14","Commands","ACITM04",4,"0","0","0","","","Y","","2-84",56,28,2,84,"DAYS",5019],[178,"CDISCPILOT01","701","701","01-701-1033","2014-03-18","2014-03-31","Xanomeline Low Dose",54,74,"65-80",2,"WHITE",1,"M","Y","Y","N","Week 24",24,"RETRIEVAL",201,182,"2014-09-15","Commands","ACITM04",4,"0","0","0","","","Y","",">140",168,14,141,null,"DAYS",5034],[179,"CDISCPILOT01","701","701","01-701-1033","2014-03-18","2014-03-31","Xanomeline Low Dose",54,74,"65-80",2,"WHITE",1,"M","Y","Y","N","Baseline",0,"BASELINE",3,1,"2014-03-18","Constructional Praxis","ACITM05",5,"1","1","","","Y","Y","","<=1",1,0,null,1,"DAYS",5005],[180,"CDISCPILOT01","701","701","01-701-1033","2014-03-18","2014-03-31","Xanomeline Low Dose",54,74,"65-80",2,"WHITE",1,"M","Y","Y","N","Week 8",8,"WEEK 4",5,28,"2014-04-14","Constructional Praxis","ACITM05",5,"1","1","0","0","","Y","","2-84",56,28,2,84,"DAYS",5020],[181,"CDISCPILOT01","701","701","01-701-1033","2014-03-18","2014-03-31","Xanomeline Low Dose",54,74,"65-80",2,"WHITE",1,"M","Y","Y","N","Week 24",24,"RETRIEVAL",201,182,"2014-09-15","Constructional Praxis","ACITM05",5,"0","1","-1","-100","","Y","",">140",168,14,141,null,"DAYS",5035],[182,"CDISCPILOT01","701","701","01-701-1033","2014-03-18","2014-03-31","Xanomeline Low Dose",54,74,"65-80",2,"WHITE",1,"M","Y","Y","N","Baseline",0,"BASELINE",3,1,"2014-03-18","Ideational Praxis","ACITM06",6,"0","0","","","Y","Y","","<=1",1,0,null,1,"DAYS",5006],[183,"CDISCPILOT01","701","701","01-701-1033","2014-03-18","2014-03-31","Xanomeline Low Dose",54,74,"65-80",2,"WHITE",1,"M","Y","Y","N","Week 8",8,"WEEK 4",5,28,"2014-04-14","Ideational Praxis","ACITM06",6,"0","0","0","","","Y","","2-84",56,28,2,84,"DAYS",5021],[184,"CDISCPILOT01","701","701","01-701-1033","2014-03-18","2014-03-31","Xanomeline Low Dose",54,74,"65-80",2,"WHITE",1,"M","Y","Y","N","Week 24",24,"RETRIEVAL",201,182,"2014-09-15","Ideational Praxis","ACITM06",6,"0","0","0","","","Y","",">140",168,14,141,null,"DAYS",5036],[185,"CDISCPILOT01","701","701","01-701-1033","2014-03-18","2014-03-31","Xanomeline Low Dose",54,74,"65-80",2,"WHITE",1,"M","Y","Y","N","Baseline",0,"BASELINE",3,1,"2014-03-18","Orientation","ACITM07",7,"0","0","","","Y","Y","","<=1",1,0,null,1,"DAYS",5007],[186,"CDISCPILOT01","701","701","01-701-1033","2014-03-18","2014-03-31","Xanomeline Low Dose",54,74,"65-80",2,"WHITE",1,"M","Y","Y","N","Week 8",8,"WEEK 4",5,28,"2014-04-14","Orientation","ACITM07",7,"0","0","0","","","Y","","2-84",56,28,2,84,"DAYS",5022],[187,"CDISCPILOT01","701","701","01-701-1033","2014-03-18","2014-03-31","Xanomeline Low Dose",54,74,"65-80",2,"WHITE",1,"M","Y","Y","N","Week 24",24,"RETRIEVAL",201,182,"2014-09-15","Orientation","ACITM07",7,"0","0","0","","","Y","",">140",168,14,141,null,"DAYS",5037],[188,"CDISCPILOT01","701","701","01-701-1033","2014-03-18","2014-03-31","Xanomeline Low Dose",54,74,"65-80",2,"WHITE",1,"M","Y","Y","N","Baseline",0,"BASELINE",3,1,"2014-03-18","Word Recognition","ACITM08",8,"1","1","","","Y","Y","","<=1",1,0,null,1,"DAYS",5008],[189,"CDISCPILOT01","701","701","01-701-1033","2014-03-18","2014-03-31","Xanomeline Low Dose",54,74,"65-80",2,"WHITE",1,"M","Y","Y","N","Week 8",8,"WEEK 4",5,28,"2014-04-14","Word Recognition","ACITM08",8,"2","1","1","100","","Y","","2-84",56,28,2,84,"DAYS",5023],[190,"CDISCPILOT01","701","701","01-701-1033","2014-03-18","2014-03-31","Xanomeline Low Dose",54,74,"65-80",2,"WHITE",1,"M","Y","Y","N","Week 24",24,"RETRIEVAL",201,182,"2014-09-15","Word Recognition","ACITM08",8,"1","1","0","0","","Y","",">140",168,14,141,null,"DAYS",5038],[191,"CDISCPILOT01","701","701","01-701-1033","2014-03-18","2014-03-31","Xanomeline Low Dose",54,74,"65-80",2,"WHITE",1,"M","Y","Y","N","Baseline",0,"BASELINE",3,1,"2014-03-18","Attention/Visual Search Task","ACITM09",9,"30","30","","","Y","Y","","<=1",1,0,null,1,"DAYS",5009],[192,"CDISCPILOT01","701","701","01-701-1033","2014-03-18","2014-03-31","Xanomeline Low Dose",54,74,"65-80",2,"WHITE",1,"M","Y","Y","N","Week 8",8,"WEEK 4",5,28,"2014-04-14","Attention/Visual Search Task","ACITM09",9,"24","30","-6","-20","","Y","","2-84",56,28,2,84,"DAYS",5024],[193,"CDISCPILOT01","701","701","01-701-1033","2014-03-18","2014-03-31","Xanomeline Low Dose",54,74,"65-80",2,"WHITE",1,"M","Y","Y","N","Week 24",24,"RETRIEVAL",201,182,"2014-09-15","Attention/Visual Search Task","ACITM09",9,"27","30","-3","-10","","Y","",">140",168,14,141,null,"DAYS",5039],[194,"CDISCPILOT01","701","701","01-701-1033","2014-03-18","2014-03-31","Xanomeline Low Dose",54,74,"65-80",2,"WHITE",1,"M","Y","Y","N","Baseline",0,"BASELINE",3,1,"2014-03-18","Maze Solution","ACITM10",10,"7","7","","","Y","Y","","<=1",1,0,null,1,"DAYS",5010],[195,"CDISCPILOT01","701","701","01-701-1033","2014-03-18","2014-03-31","Xanomeline Low Dose",54,74,"65-80",2,"WHITE",1,"M","Y","Y","N","Week 8",8,"WEEK 4",5,28,"2014-04-14","Maze Solution","ACITM10",10,"6","7","-1","-14.2857142857142","","Y","","2-84",56,28,2,84,"DAYS",5025],[196,"CDISCPILOT01","701","701","01-701-1033","2014-03-18","2014-03-31","Xanomeline Low Dose",54,74,"65-80",2,"WHITE",1,"M","Y","Y","N","Week 24",24,"RETRIEVAL",201,182,"2014-09-15","Maze Solution","ACITM10",10,"4","7","-3","-42.8571428571428","","Y","",">140",168,14,141,null,"DAYS",5040],[197,"CDISCPILOT01","701","701","01-701-1033","2014-03-18","2014-03-31","Xanomeline Low Dose",54,74,"65-80",2,"WHITE",1,"M","Y","Y","N","Baseline",0,"BASELINE",3,1,"2014-03-18","Spoken Language Ability","ACITM11",11,"0","0","","","Y","Y","","<=1",1,0,null,1,"DAYS",5011],[198,"CDISCPILOT01","701","701","01-701-1033","2014-03-18","2014-03-31","Xanomeline Low Dose",54,74,"65-80",2,"WHITE",1,"M","Y","Y","N","Week 8",8,"WEEK 4",5,28,"2014-04-14","Spoken Language Ability","ACITM11",11,"0","0","0","","","Y","","2-84",56,28,2,84,"DAYS",5026],[199,"CDISCPILOT01","701","701","01-701-1033","2014-03-18","2014-03-31","Xanomeline Low Dose",54,74,"65-80",2,"WHITE",1,"M","Y","Y","N","Week 24",24,"RETRIEVAL",201,182,"2014-09-15","Spoken Language Ability","ACITM11",11,"0","0","0","","","Y","",">140",168,14,141,null,"DAYS",5041],[200,"CDISCPILOT01","701","701","01-701-1033","2014-03-18","2014-03-31","Xanomeline Low Dose",54,74,"65-80",2,"WHITE",1,"M","Y","Y","N","Baseline",0,"BASELINE",3,1,"2014-03-18","Comprehension Of Spoken Language","ACITM12",12,"0","0","","","Y","Y","","<=1",1,0,null,1,"DAYS",5012],[201,"CDISCPILOT01","701","701","01-701-1033","2014-03-18","2014-03-31","Xanomeline Low Dose",54,74,"65-80",2,"WHITE",1,"M","Y","Y","N","Week 8",8,"WEEK 4",5,28,"2014-04-14","Comprehension Of Spoken Language","ACITM12",12,"0","0","0","","","Y","","2-84",56,28,2,84,"DAYS",5027],[202,"CDISCPILOT01","701","701","01-701-1033","2014-03-18","2014-03-31","Xanomeline Low Dose",54,74,"65-80",2,"WHITE",1,"M","Y","Y","N","Week 24",24,"RETRIEVAL",201,182,"2014-09-15","Comprehension Of Spoken Language","ACITM12",12,"0","0","0","","","Y","",">140",168,14,141,null,"DAYS",5042],[203,"CDISCPILOT01","701","701","01-701-1033","2014-03-18","2014-03-31","Xanomeline Low Dose",54,74,"65-80",2,"WHITE",1,"M","Y","Y","N","Baseline",0,"BASELINE",3,1,"2014-03-18","Word Finding Difficulty In Spontaneous S","ACITM13",13,"0","0","","","Y","Y","","<=1",1,0,null,1,"DAYS",5013],[204,"CDISCPILOT01","701","701","01-701-1033","2014-03-18","2014-03-31","Xanomeline Low Dose",54,74,"65-80",2,"WHITE",1,"M","Y","Y","N","Week 8",8,"WEEK 4",5,28,"2014-04-14","Word Finding Difficulty In Spontaneous S","ACITM13",13,"0","0","0","","","Y","","2-84",56,28,2,84,"DAYS",5028],[205,"CDISCPILOT01","701","701","01-701-1033","2014-03-18","2014-03-31","Xanomeline Low Dose",54,74,"65-80",2,"WHITE",1,"M","Y","Y","N","Week 24",24,"RETRIEVAL",201,182,"2014-09-15","Word Finding Difficulty In Spontaneous S","ACITM13",13,"0","0","0","","","Y","",">140",168,14,141,null,"DAYS",5043],[206,"CDISCPILOT01","701","701","01-701-1033","2014-03-18","2014-03-31","Xanomeline Low Dose",54,74,"65-80",2,"WHITE",1,"M","Y","Y","N","Baseline",0,"BASELINE",3,1,"2014-03-18","Recall Of Test Instructions","ACITM14",14,"0","0","","","Y","Y","","<=1",1,0,null,1,"DAYS",5014],[207,"CDISCPILOT01","701","701","01-701-1033","2014-03-18","2014-03-31","Xanomeline Low Dose",54,74,"65-80",2,"WHITE",1,"M","Y","Y","N","Week 8",8,"WEEK 4",5,28,"2014-04-14","Recall Of Test Instructions","ACITM14",14,"0","0","0","","","Y","","2-84",56,28,2,84,"DAYS",5029],[208,"CDISCPILOT01","701","701","01-701-1033","2014-03-18","2014-03-31","Xanomeline Low Dose",54,74,"65-80",2,"WHITE",1,"M","Y","Y","N","Week 24",24,"RETRIEVAL",201,182,"2014-09-15","Recall Of Test Instructions","ACITM14",14,"0","0","0","","","Y","",">140",168,14,141,null,"DAYS",5044],[209,"CDISCPILOT01","701","701","01-701-1033","2014-03-18","2014-03-31","Xanomeline Low Dose",54,74,"65-80",2,"WHITE",1,"M","Y","Y","N","Baseline",0,"BASELINE",3,1,"2014-03-18","Adas-Cog(11) Subscore","ACTOT",15,"7","7","","","Y","Y","","<=1",1,0,null,1,"DAYS",5015],[210,"CDISCPILOT01","701","701","01-701-1033","2014-03-18","2014-03-31","Xanomeline Low Dose",54,74,"65-80",2,"WHITE",1,"M","Y","Y","N","Week 8",8,"WEEK 4",5,28,"2014-04-14","Adas-Cog(11) Subscore","ACTOT",15,"8","7","1","14.2857142857142","","Y","","2-84",56,28,2,84,"DAYS",5030],[211,"CDISCPILOT01","701","701","01-701-1033","2014-03-18","2014-03-31","Xanomeline Low Dose",54,74,"65-80",2,"WHITE",1,"M","Y","Y","N","Week 16",16,"WEEK 4",5,28,"2014-04-14","Adas-Cog(11) Subscore","ACTOT",15,"8","7","1","14.2857142857142","","Y","LOCF","85-140",112,84,85,140,"DAYS",5030],[212,"CDISCPILOT01","701","701","01-701-1033","2014-03-18","2014-03-31","Xanomeline Low Dose",54,74,"65-80",2,"WHITE",1,"M","Y","Y","N","Week 24",24,"RETRIEVAL",201,182,"2014-09-15","Adas-Cog(11) Subscore","ACTOT",15,"7","7","0","0","","Y","",">140",168,14,141,null,"DAYS",5045],[213,"CDISCPILOT01","701","701","01-701-1034","2014-07-01","2014-12-30","Xanomeline High Dose",81,77,"65-80",2,"WHITE",1,"F","Y","Y","Y","Baseline",0,"BASELINE",3,1,"2014-07-01","Word Recall Task","ACITM01",1,"5","5","","","Y","Y","","<=1",1,0,null,1,"DAYS",5001],[214,"CDISCPILOT01","701","701","01-701-1034","2014-07-01","2014-12-30","Xanomeline High Dose",81,77,"65-80",2,"WHITE",1,"F","Y","Y","Y","Week 8",8,"WEEK 8",8,57,"2014-08-26","Word Recall Task","ACITM01",1,"5","5","0","0","","Y","","2-84",56,1,2,84,"DAYS",5016],[215,"CDISCPILOT01","701","701","01-701-1034","2014-07-01","2014-12-30","Xanomeline High Dose",81,77,"65-80",2,"WHITE",1,"F","Y","Y","Y","Week 16",16,"WEEK 16",10,113,"2014-10-21","Word Recall Task","ACITM01",1,"6","5","1","20","","Y","","85-140",112,1,85,140,"DAYS",5031],[216,"CDISCPILOT01","701","701","01-701-1034","2014-07-01","2014-12-30","Xanomeline High Dose",81,77,"65-80",2,"WHITE",1,"F","Y","Y","Y","Week 24",24,"WEEK 24",12,170,"2014-12-17","Word Recall Task","ACITM01",1,"6","5","1","20","","Y","",">140",168,2,141,null,"DAYS",5046],[217,"CDISCPILOT01","701","701","01-701-1034","2014-07-01","2014-12-30","Xanomeline High Dose",81,77,"65-80",2,"WHITE",1,"F","Y","Y","Y","Baseline",0,"BASELINE",3,1,"2014-07-01","Naming Objects And Fingers (Refer To 5 C","ACITM02",2,"0","0","","","Y","Y","","<=1",1,0,null,1,"DAYS",5002],[218,"CDISCPILOT01","701","701","01-701-1034","2014-07-01","2014-12-30","Xanomeline High Dose",81,77,"65-80",2,"WHITE",1,"F","Y","Y","Y","Week 8",8,"WEEK 8",8,57,"2014-08-26","Naming Objects And Fingers (Refer To 5 C","ACITM02",2,"1","0","1","","","Y","","2-84",56,1,2,84,"DAYS",5017],[219,"CDISCPILOT01","701","701","01-701-1034","2014-07-01","2014-12-30","Xanomeline High Dose",81,77,"65-80",2,"WHITE",1,"F","Y","Y","Y","Week 16",16,"WEEK 16",10,113,"2014-10-21","Naming Objects And Fingers (Refer To 5 C","ACITM02",2,"1","0","1","","","Y","","85-140",112,1,85,140,"DAYS",5032],[220,"CDISCPILOT01","701","701","01-701-1034","2014-07-01","2014-12-30","Xanomeline High Dose",81,77,"65-80",2,"WHITE",1,"F","Y","Y","Y","Week 24",24,"WEEK 24",12,170,"2014-12-17","Naming Objects And Fingers (Refer To 5 C","ACITM02",2,"1","0","1","","","Y","",">140",168,2,141,null,"DAYS",5047],[221,"CDISCPILOT01","701","701","01-701-1034","2014-07-01","2014-12-30","Xanomeline High Dose",81,77,"65-80",2,"WHITE",1,"F","Y","Y","Y","Baseline",0,"BASELINE",3,1,"2014-07-01","Delayed Word Recall","ACITM03",3,"9","9","","","Y","Y","","<=1",1,0,null,1,"DAYS",5003],[222,"CDISCPILOT01","701","701","01-701-1034","2014-07-01","2014-12-30","Xanomeline High Dose",81,77,"65-80",2,"WHITE",1,"F","Y","Y","Y","Week 8",8,"WEEK 8",8,57,"2014-08-26","Delayed Word Recall","ACITM03",3,"7","9","-2","-22.2222222222222","","Y","","2-84",56,1,2,84,"DAYS",5018],[223,"CDISCPILOT01","701","701","01-701-1034","2014-07-01","2014-12-30","Xanomeline High Dose",81,77,"65-80",2,"WHITE",1,"F","Y","Y","Y","Week 16",16,"WEEK 16",10,113,"2014-10-21","Delayed Word Recall","ACITM03",3,"10","9","1","11.1111111111111","","Y","","85-140",112,1,85,140,"DAYS",5033],[224,"CDISCPILOT01","701","701","01-701-1034","2014-07-01","2014-12-30","Xanomeline High Dose",81,77,"65-80",2,"WHITE",1,"F","Y","Y","Y","Week 24",24,"WEEK 24",12,170,"2014-12-17","Delayed Word Recall","ACITM03",3,"10","9","1","11.1111111111111","","Y","",">140",168,2,141,null,"DAYS",5048],[225,"CDISCPILOT01","701","701","01-701-1034","2014-07-01","2014-12-30","Xanomeline High Dose",81,77,"65-80",2,"WHITE",1,"F","Y","Y","Y","Baseline",0,"BASELINE",3,1,"2014-07-01","Commands","ACITM04",4,"0","0","","","Y","Y","","<=1",1,0,null,1,"DAYS",5004],[226,"CDISCPILOT01","701","701","01-701-1034","2014-07-01","2014-12-30","Xanomeline High Dose",81,77,"65-80",2,"WHITE",1,"F","Y","Y","Y","Week 8",8,"WEEK 8",8,57,"2014-08-26","Commands","ACITM04",4,"0","0","0","","","Y","","2-84",56,1,2,84,"DAYS",5019],[227,"CDISCPILOT01","701","701","01-701-1034","2014-07-01","2014-12-30","Xanomeline High Dose",81,77,"65-80",2,"WHITE",1,"F","Y","Y","Y","Week 16",16,"WEEK 16",10,113,"2014-10-21","Commands","ACITM04",4,"0","0","0","","","Y","","85-140",112,1,85,140,"DAYS",5034],[228,"CDISCPILOT01","701","701","01-701-1034","2014-07-01","2014-12-30","Xanomeline High Dose",81,77,"65-80",2,"WHITE",1,"F","Y","Y","Y","Week 24",24,"WEEK 24",12,170,"2014-12-17","Commands","ACITM04",4,"0","0","0","","","Y","",">140",168,2,141,null,"DAYS",5049],[229,"CDISCPILOT01","701","701","01-701-1034","2014-07-01","2014-12-30","Xanomeline High Dose",81,77,"65-80",2,"WHITE",1,"F","Y","Y","Y","Baseline",0,"BASELINE",3,1,"2014-07-01","Constructional Praxis","ACITM05",5,"2","2","","","Y","Y","","<=1",1,0,null,1,"DAYS",5005],[230,"CDISCPILOT01","701","701","01-701-1034","2014-07-01","2014-12-30","Xanomeline High Dose",81,77,"65-80",2,"WHITE",1,"F","Y","Y","Y","Week 8",8,"WEEK 8",8,57,"2014-08-26","Constructional Praxis","ACITM05",5,"1","2","-1","-50","","Y","","2-84",56,1,2,84,"DAYS",5020],[231,"CDISCPILOT01","701","701","01-701-1034","2014-07-01","2014-12-30","Xanomeline High Dose",81,77,"65-80",2,"WHITE",1,"F","Y","Y","Y","Week 16",16,"WEEK 16",10,113,"2014-10-21","Constructional Praxis","ACITM05",5,"3","2","1","50","","Y","","85-140",112,1,85,140,"DAYS",5035],[232,"CDISCPILOT01","701","701","01-701-1034","2014-07-01","2014-12-30","Xanomeline High Dose",81,77,"65-80",2,"WHITE",1,"F","Y","Y","Y","Week 24",24,"WEEK 24",12,170,"2014-12-17","Constructional Praxis","ACITM05",5,"2","2","0","0","","Y","",">140",168,2,141,null,"DAYS",5050],[233,"CDISCPILOT01","701","701","01-701-1034","2014-07-01","2014-12-30","Xanomeline High Dose",81,77,"65-80",2,"WHITE",1,"F","Y","Y","Y","Baseline",0,"BASELINE",3,1,"2014-07-01","Ideational Praxis","ACITM06",6,"1","1","","","Y","Y","","<=1",1,0,null,1,"DAYS",5006],[234,"CDISCPILOT01","701","701","01-701-1034","2014-07-01","2014-12-30","Xanomeline High Dose",81,77,"65-80",2,"WHITE",1,"F","Y","Y","Y","Week 8",8,"WEEK 8",8,57,"2014-08-26","Ideational Praxis","ACITM06",6,"0","1","-1","-100","","Y","","2-84",56,1,2,84,"DAYS",5021],[235,"CDISCPILOT01","701","701","01-701-1034","2014-07-01","2014-12-30","Xanomeline High Dose",81,77,"65-80",2,"WHITE",1,"F","Y","Y","Y","Week 16",16,"WEEK 16",10,113,"2014-10-21","Ideational Praxis","ACITM06",6,"0","1","-1","-100","","Y","","85-140",112,1,85,140,"DAYS",5036],[236,"CDISCPILOT01","701","701","01-701-1034","2014-07-01","2014-12-30","Xanomeline High Dose",81,77,"65-80",2,"WHITE",1,"F","Y","Y","Y","Week 24",24,"WEEK 24",12,170,"2014-12-17","Ideational Praxis","ACITM06",6,"0","1","-1","-100","","Y","",">140",168,2,141,null,"DAYS",5051],[237,"CDISCPILOT01","701","701","01-701-1034","2014-07-01","2014-12-30","Xanomeline High Dose",81,77,"65-80",2,"WHITE",1,"F","Y","Y","Y","Baseline",0,"BASELINE",3,1,"2014-07-01","Orientation","ACITM07",7,"0","0","","","Y","Y","","<=1",1,0,null,1,"DAYS",5007],[238,"CDISCPILOT01","701","701","01-701-1034","2014-07-01","2014-12-30","Xanomeline High Dose",81,77,"65-80",2,"WHITE",1,"F","Y","Y","Y","Week 8",8,"WEEK 8",8,57,"2014-08-26","Orientation","ACITM07",7,"0","0","0","","","Y","","2-84",56,1,2,84,"DAYS",5022],[239,"CDISCPILOT01","701","701","01-701-1034","2014-07-01","2014-12-30","Xanomeline High Dose",81,77,"65-80",2,"WHITE",1,"F","Y","Y","Y","Week 16",16,"WEEK 16",10,113,"2014-10-21","Orientation","ACITM07",7,"0","0","0","","","Y","","85-140",112,1,85,140,"DAYS",5037],[240,"CDISCPILOT01","701","701","01-701-1034","2014-07-01","2014-12-30","Xanomeline High Dose",81,77,"65-80",2,"WHITE",1,"F","Y","Y","Y","Week 24",24,"WEEK 24",12,170,"2014-12-17","Orientation","ACITM07",7,"0","0","0","","","Y","",">140",168,2,141,null,"DAYS",5052],[241,"CDISCPILOT01","701","701","01-701-1034","2014-07-01","2014-12-30","Xanomeline High Dose",81,77,"65-80",2,"WHITE",1,"F","Y","Y","Y","Baseline",0,"BASELINE",3,1,"2014-07-01","Word Recognition","ACITM08",8,"3","3","","","Y","Y","","<=1",1,0,null,1,"DAYS",5008],[242,"CDISCPILOT01","701","701","01-701-1034","2014-07-01","2014-12-30","Xanomeline High Dose",81,77,"65-80",2,"WHITE",1,"F","Y","Y","Y","Week 8",8,"WEEK 8",8,57,"2014-08-26","Word Recognition","ACITM08",8,"4","3","1","33.3333333333333","","Y","","2-84",56,1,2,84,"DAYS",5023],[243,"CDISCPILOT01","701","701","01-701-1034","2014-07-01","2014-12-30","Xanomeline High Dose",81,77,"65-80",2,"WHITE",1,"F","Y","Y","Y","Week 16",16,"WEEK 16",10,113,"2014-10-21","Word Recognition","ACITM08",8,"4","3","1","33.3333333333333","","Y","","85-140",112,1,85,140,"DAYS",5038],[244,"CDISCPILOT01","701","701","01-701-1034","2014-07-01","2014-12-30","Xanomeline High Dose",81,77,"65-80",2,"WHITE",1,"F","Y","Y","Y","Week 24",24,"WEEK 24",12,170,"2014-12-17","Word Recognition","ACITM08",8,"2","3","-1","-33.3333333333333","","Y","",">140",168,2,141,null,"DAYS",5053],[245,"CDISCPILOT01","701","701","01-701-1034","2014-07-01","2014-12-30","Xanomeline High Dose",81,77,"65-80",2,"WHITE",1,"F","Y","Y","Y","Baseline",0,"BASELINE",3,1,"2014-07-01","Attention/Visual Search Task","ACITM09",9,"20","20","","","Y","Y","","<=1",1,0,null,1,"DAYS",5009],[246,"CDISCPILOT01","701","701","01-701-1034","2014-07-01","2014-12-30","Xanomeline High Dose",81,77,"65-80",2,"WHITE",1,"F","Y","Y","Y","Week 8",8,"WEEK 8",8,57,"2014-08-26","Attention/Visual Search Task","ACITM09",9,"20","20","0","0","","Y","","2-84",56,1,2,84,"DAYS",5024],[247,"CDISCPILOT01","701","701","01-701-1034","2014-07-01","2014-12-30","Xanomeline High Dose",81,77,"65-80",2,"WHITE",1,"F","Y","Y","Y","Week 16",16,"WEEK 16",10,113,"2014-10-21","Attention/Visual Search Task","ACITM09",9,"27","20","7","35","","Y","","85-140",112,1,85,140,"DAYS",5039],[248,"CDISCPILOT01","701","701","01-701-1034","2014-07-01","2014-12-30","Xanomeline High Dose",81,77,"65-80",2,"WHITE",1,"F","Y","Y","Y","Week 24",24,"WEEK 24",12,170,"2014-12-17","Attention/Visual Search Task","ACITM09",9,"31","20","11","55","","Y","",">140",168,2,141,null,"DAYS",5054],[249,"CDISCPILOT01","701","701","01-701-1034","2014-07-01","2014-12-30","Xanomeline High Dose",81,77,"65-80",2,"WHITE",1,"F","Y","Y","Y","Baseline",0,"BASELINE",3,1,"2014-07-01","Maze Solution","ACITM10",10,"5","5","","","Y","Y","","<=1",1,0,null,1,"DAYS",5010],[250,"CDISCPILOT01","701","701","01-701-1034","2014-07-01","2014-12-30","Xanomeline High Dose",81,77,"65-80",2,"WHITE",1,"F","Y","Y","Y","Week 8",8,"WEEK 8",8,57,"2014-08-26","Maze Solution","ACITM10",10,"4","5","-1","-20","","Y","","2-84",56,1,2,84,"DAYS",5025],[251,"CDISCPILOT01","701","701","01-701-1034","2014-07-01","2014-12-30","Xanomeline High Dose",81,77,"65-80",2,"WHITE",1,"F","Y","Y","Y","Week 16",16,"WEEK 16",10,113,"2014-10-21","Maze Solution","ACITM10",10,"5","5","0","0","","Y","","85-140",112,1,85,140,"DAYS",5040],[252,"CDISCPILOT01","701","701","01-701-1034","2014-07-01","2014-12-30","Xanomeline High Dose",81,77,"65-80",2,"WHITE",1,"F","Y","Y","Y","Week 24",24,"WEEK 24",12,170,"2014-12-17","Maze Solution","ACITM10",10,"7","5","2","40","","Y","",">140",168,2,141,null,"DAYS",5055],[253,"CDISCPILOT01","701","701","01-701-1034","2014-07-01","2014-12-30","Xanomeline High Dose",81,77,"65-80",2,"WHITE",1,"F","Y","Y","Y","Baseline",0,"BASELINE",3,1,"2014-07-01","Spoken Language Ability","ACITM11",11,"0","0","","","Y","Y","","<=1",1,0,null,1,"DAYS",5011],[254,"CDISCPILOT01","701","701","01-701-1034","2014-07-01","2014-12-30","Xanomeline High Dose",81,77,"65-80",2,"WHITE",1,"F","Y","Y","Y","Week 8",8,"WEEK 8",8,57,"2014-08-26","Spoken Language Ability","ACITM11",11,"0","0","0","","","Y","","2-84",56,1,2,84,"DAYS",5026],[255,"CDISCPILOT01","701","701","01-701-1034","2014-07-01","2014-12-30","Xanomeline High Dose",81,77,"65-80",2,"WHITE",1,"F","Y","Y","Y","Week 16",16,"WEEK 16",10,113,"2014-10-21","Spoken Language Ability","ACITM11",11,"0","0","0","","","Y","","85-140",112,1,85,140,"DAYS",5041],[256,"CDISCPILOT01","701","701","01-701-1034","2014-07-01","2014-12-30","Xanomeline High Dose",81,77,"65-80",2,"WHITE",1,"F","Y","Y","Y","Week 24",24,"WEEK 24",12,170,"2014-12-17","Spoken Language Ability","ACITM11",11,"0","0","0","","","Y","",">140",168,2,141,null,"DAYS",5056],[257,"CDISCPILOT01","701","701","01-701-1034","2014-07-01","2014-12-30","Xanomeline High Dose",81,77,"65-80",2,"WHITE",1,"F","Y","Y","Y","Baseline",0,"BASELINE",3,1,"2014-07-01","Comprehension Of Spoken Language","ACITM12",12,"0","0","","","Y","Y","","<=1",1,0,null,1,"DAYS",5012],[258,"CDISCPILOT01","701","701","01-701-1034","2014-07-01","2014-12-30","Xanomeline High Dose",81,77,"65-80",2,"WHITE",1,"F","Y","Y","Y","Week 8",8,"WEEK 8",8,57,"2014-08-26","Comprehension Of Spoken Language","ACITM12",12,"0","0","0","","","Y","","2-84",56,1,2,84,"DAYS",5027],[259,"CDISCPILOT01","701","701","01-701-1034","2014-07-01","2014-12-30","Xanomeline High Dose",81,77,"65-80",2,"WHITE",1,"F","Y","Y","Y","Week 16",16,"WEEK 16",10,113,"2014-10-21","Comprehension Of Spoken Language","ACITM12",12,"0","0","0","","","Y","","85-140",112,1,85,140,"DAYS",5042],[260,"CDISCPILOT01","701","701","01-701-1034","2014-07-01","2014-12-30","Xanomeline High Dose",81,77,"65-80",2,"WHITE",1,"F","Y","Y","Y","Week 24",24,"WEEK 24",12,170,"2014-12-17","Comprehension Of Spoken Language","ACITM12",12,"0","0","0","","","Y","",">140",168,2,141,null,"DAYS",5057],[261,"CDISCPILOT01","701","701","01-701-1034","2014-07-01","2014-12-30","Xanomeline High Dose",81,77,"65-80",2,"WHITE",1,"F","Y","Y","Y","Baseline",0,"BASELINE",3,1,"2014-07-01","Word Finding Difficulty In Spontaneous S","ACITM13",13,"0","0","","","Y","Y","","<=1",1,0,null,1,"DAYS",5013],[262,"CDISCPILOT01","701","701","01-701-1034","2014-07-01","2014-12-30","Xanomeline High Dose",81,77,"65-80",2,"WHITE",1,"F","Y","Y","Y","Week 8",8,"WEEK 8",8,57,"2014-08-26","Word Finding Difficulty In Spontaneous S","ACITM13",13,"1","0","1","","","Y","","2-84",56,1,2,84,"DAYS",5028],[263,"CDISCPILOT01","701","701","01-701-1034","2014-07-01","2014-12-30","Xanomeline High Dose",81,77,"65-80",2,"WHITE",1,"F","Y","Y","Y","Week 16",16,"WEEK 16",10,113,"2014-10-21","Word Finding Difficulty In Spontaneous S","ACITM13",13,"0","0","0","","","Y","","85-140",112,1,85,140,"DAYS",5043],[264,"CDISCPILOT01","701","701","01-701-1034","2014-07-01","2014-12-30","Xanomeline High Dose",81,77,"65-80",2,"WHITE",1,"F","Y","Y","Y","Week 24",24,"WEEK 24",12,170,"2014-12-17","Word Finding Difficulty In Spontaneous S","ACITM13",13,"0","0","0","","","Y","",">140",168,2,141,null,"DAYS",5058],[265,"CDISCPILOT01","701","701","01-701-1034","2014-07-01","2014-12-30","Xanomeline High Dose",81,77,"65-80",2,"WHITE",1,"F","Y","Y","Y","Baseline",0,"BASELINE",3,1,"2014-07-01","Recall Of Test Instructions","ACITM14",14,"0","0","","","Y","Y","","<=1",1,0,null,1,"DAYS",5014],[266,"CDISCPILOT01","701","701","01-701-1034","2014-07-01","2014-12-30","Xanomeline High Dose",81,77,"65-80",2,"WHITE",1,"F","Y","Y","Y","Week 8",8,"WEEK 8",8,57,"2014-08-26","Recall Of Test Instructions","ACITM14",14,"0","0","0","","","Y","","2-84",56,1,2,84,"DAYS",5029],[267,"CDISCPILOT01","701","701","01-701-1034","2014-07-01","2014-12-30","Xanomeline High Dose",81,77,"65-80",2,"WHITE",1,"F","Y","Y","Y","Week 16",16,"WEEK 16",10,113,"2014-10-21","Recall Of Test Instructions","ACITM14",14,"0","0","0","","","Y","","85-140",112,1,85,140,"DAYS",5044],[268,"CDISCPILOT01","701","701","01-701-1034","2014-07-01","2014-12-30","Xanomeline High Dose",81,77,"65-80",2,"WHITE",1,"F","Y","Y","Y","Week 24",24,"WEEK 24",12,170,"2014-12-17","Recall Of Test Instructions","ACITM14",14,"0","0","0","","","Y","",">140",168,2,141,null,"DAYS",5059],[269,"CDISCPILOT01","701","701","01-701-1034","2014-07-01","2014-12-30","Xanomeline High Dose",81,77,"65-80",2,"WHITE",1,"F","Y","Y","Y","Baseline",0,"BASELINE",3,1,"2014-07-01","Adas-Cog(11) Subscore","ACTOT",15,"11","11","","","Y","Y","","<=1",1,0,null,1,"DAYS",5015],[270,"CDISCPILOT01","701","701","01-701-1034","2014-07-01","2014-12-30","Xanomeline High Dose",81,77,"65-80",2,"WHITE",1,"F","Y","Y","Y","Week 8",8,"WEEK 8",8,57,"2014-08-26","Adas-Cog(11) Subscore","ACTOT",15,"12","11","1","9.09090909090909","","Y","","2-84",56,1,2,84,"DAYS",5030],[271,"CDISCPILOT01","701","701","01-701-1034","2014-07-01","2014-12-30","Xanomeline High Dose",81,77,"65-80",2,"WHITE",1,"F","Y","Y","Y","Week 16",16,"WEEK 16",10,113,"2014-10-21","Adas-Cog(11) Subscore","ACTOT",15,"14","11","3","27.2727272727272","","Y","","85-140",112,1,85,140,"DAYS",5045],[272,"CDISCPILOT01","701","701","01-701-1034","2014-07-01","2014-12-30","Xanomeline High Dose",81,77,"65-80",2,"WHITE",1,"F","Y","Y","Y","Week 24",24,"WEEK 24",12,170,"2014-12-17","Adas-Cog(11) Subscore","ACTOT",15,"11","11","0","0","","Y","",">140",168,2,141,null,"DAYS",5060],[273,"CDISCPILOT01","701","701","01-701-1047","2013-02-12","2013-03-09","Placebo",0,85,">80",3,"WHITE",1,"F","Y","Y","N","Baseline",0,"BASELINE",3,1,"2013-02-12","Word Recall Task","ACITM01",1,"6","6","","","Y","Y","","<=1",1,0,null,1,"DAYS",5001],[274,"CDISCPILOT01","701","701","01-701-1047","2013-02-12","2013-03-09","Placebo",0,85,">80",3,"WHITE",1,"F","Y","Y","N","Week 8",8,"AMBUL ECG REMOVAL",6,46,"2013-03-29","Word Recall Task","ACITM01",1,"7","6","1","16.6666666666666","","Y","","2-84",56,10,2,84,"DAYS",5016],[275,"CDISCPILOT01","701","701","01-701-1047","2013-02-12","2013-03-09","Placebo",0,85,">80",3,"WHITE",1,"F","Y","Y","N","Week 24",24,"RETRIEVAL",201,167,"2013-07-28","Word Recall Task","ACITM01",1,"7","6","1","16.6666666666666","","Y","",">140",168,1,141,null,"DAYS",5031],[276,"CDISCPILOT01","701","701","01-701-1047","2013-02-12","2013-03-09","Placebo",0,85,">80",3,"WHITE",1,"F","Y","Y","N","Baseline",0,"BASELINE",3,1,"2013-02-12","Naming Objects And Fingers (Refer To 5 C","ACITM02",2,"0","0","","","Y","Y","","<=1",1,0,null,1,"DAYS",5002],[277,"CDISCPILOT01","701","701","01-701-1047","2013-02-12","2013-03-09","Placebo",0,85,">80",3,"WHITE",1,"F","Y","Y","N","Week 8",8,"AMBUL ECG REMOVAL",6,46,"2013-03-29","Naming Objects And Fingers (Refer To 5 C","ACITM02",2,"0","0","0","","","Y","","2-84",56,10,2,84,"DAYS",5017],[278,"CDISCPILOT01","701","701","01-701-1047","2013-02-12","2013-03-09","Placebo",0,85,">80",3,"WHITE",1,"F","Y","Y","N","Week 24",24,"RETRIEVAL",201,167,"2013-07-28","Naming Objects And Fingers (Refer To 5 C","ACITM02",2,"0","0","0","","","Y","",">140",168,1,141,null,"DAYS",5032],[279,"CDISCPILOT01","701","701","01-701-1047","2013-02-12","2013-03-09","Placebo",0,85,">80",3,"WHITE",1,"F","Y","Y","N","Baseline",0,"BASELINE",3,1,"2013-02-12","Delayed Word Recall","ACITM03",3,"10","10","","","Y","Y","","<=1",1,0,null,1,"DAYS",5003],[280,"CDISCPILOT01","701","701","01-701-1047","2013-02-12","2013-03-09","Placebo",0,85,">80",3,"WHITE",1,"F","Y","Y","N","Week 8",8,"AMBUL ECG REMOVAL",6,46,"2013-03-29","Delayed Word Recall","ACITM03",3,"10","10","0","0","","Y","","2-84",56,10,2,84,"DAYS",5018],[281,"CDISCPILOT01","701","701","01-701-1047","2013-02-12","2013-03-09","Placebo",0,85,">80",3,"WHITE",1,"F","Y","Y","N","Week 24",24,"RETRIEVAL",201,167,"2013-07-28","Delayed Word Recall","ACITM03",3,"10","10","0","0","","Y","",">140",168,1,141,null,"DAYS",5033],[282,"CDISCPILOT01","701","701","01-701-1047","2013-02-12","2013-03-09","Placebo",0,85,">80",3,"WHITE",1,"F","Y","Y","N","Baseline",0,"BASELINE",3,1,"2013-02-12","Commands","ACITM04",4,"0","0","","","Y","Y","","<=1",1,0,null,1,"DAYS",5004],[283,"CDISCPILOT01","701","701","01-701-1047","2013-02-12","2013-03-09","Placebo",0,85,">80",3,"WHITE",1,"F","Y","Y","N","Week 8",8,"AMBUL ECG REMOVAL",6,46,"2013-03-29","Commands","ACITM04",4,"0","0","0","","","Y","","2-84",56,10,2,84,"DAYS",5019],[284,"CDISCPILOT01","701","701","01-701-1047","2013-02-12","2013-03-09","Placebo",0,85,">80",3,"WHITE",1,"F","Y","Y","N","Week 24",24,"RETRIEVAL",201,167,"2013-07-28","Commands","ACITM04",4,"0","0","0","","","Y","",">140",168,1,141,null,"DAYS",5034],[285,"CDISCPILOT01","701","701","01-701-1047","2013-02-12","2013-03-09","Placebo",0,85,">80",3,"WHITE",1,"F","Y","Y","N","Baseline",0,"BASELINE",3,1,"2013-02-12","Constructional Praxis","ACITM05",5,"1","1","","","Y","Y","","<=1",1,0,null,1,"DAYS",5005],[286,"CDISCPILOT01","701","701","01-701-1047","2013-02-12","2013-03-09","Placebo",0,85,">80",3,"WHITE",1,"F","Y","Y","N","Week 8",8,"AMBUL ECG REMOVAL",6,46,"2013-03-29","Constructional Praxis","ACITM05",5,"0","1","-1","-100","","Y","","2-84",56,10,2,84,"DAYS",5020],[287,"CDISCPILOT01","701","701","01-701-1047","2013-02-12","2013-03-09","Placebo",0,85,">80",3,"WHITE",1,"F","Y","Y","N","Week 24",24,"RETRIEVAL",201,167,"2013-07-28","Constructional Praxis","ACITM05",5,"1","1","0","0","","Y","",">140",168,1,141,null,"DAYS",5035],[288,"CDISCPILOT01","701","701","01-701-1047","2013-02-12","2013-03-09","Placebo",0,85,">80",3,"WHITE",1,"F","Y","Y","N","Baseline",0,"BASELINE",3,1,"2013-02-12","Ideational Praxis","ACITM06",6,"0","0","","","Y","Y","","<=1",1,0,null,1,"DAYS",5006],[289,"CDISCPILOT01","701","701","01-701-1047","2013-02-12","2013-03-09","Placebo",0,85,">80",3,"WHITE",1,"F","Y","Y","N","Week 8",8,"AMBUL ECG REMOVAL",6,46,"2013-03-29","Ideational Praxis","ACITM06",6,"1","0","1","","","Y","","2-84",56,10,2,84,"DAYS",5021],[290,"CDISCPILOT01","701","701","01-701-1047","2013-02-12","2013-03-09","Placebo",0,85,">80",3,"WHITE",1,"F","Y","Y","N","Week 24",24,"RETRIEVAL",201,167,"2013-07-28","Ideational Praxis","ACITM06",6,"0","0","0","","","Y","",">140",168,1,141,null,"DAYS",5036],[291,"CDISCPILOT01","701","701","01-701-1047","2013-02-12","2013-03-09","Placebo",0,85,">80",3,"WHITE",1,"F","Y","Y","N","Baseline",0,"BASELINE",3,1,"2013-02-12","Orientation","ACITM07",7,"0","0","","","Y","Y","","<=1",1,0,null,1,"DAYS",5007],[292,"CDISCPILOT01","701","701","01-701-1047","2013-02-12","2013-03-09","Placebo",0,85,">80",3,"WHITE",1,"F","Y","Y","N","Week 8",8,"AMBUL ECG REMOVAL",6,46,"2013-03-29","Orientation","ACITM07",7,"1","0","1","","","Y","","2-84",56,10,2,84,"DAYS",5022],[293,"CDISCPILOT01","701","701","01-701-1047","2013-02-12","2013-03-09","Placebo",0,85,">80",3,"WHITE",1,"F","Y","Y","N","Week 24",24,"RETRIEVAL",201,167,"2013-07-28","Orientation","ACITM07",7,"2","0","2","","","Y","",">140",168,1,141,null,"DAYS",5037],[294,"CDISCPILOT01","701","701","01-701-1047","2013-02-12","2013-03-09","Placebo",0,85,">80",3,"WHITE",1,"F","Y","Y","N","Baseline",0,"BASELINE",3,1,"2013-02-12","Word Recognition","ACITM08",8,"3","3","","","Y","Y","","<=1",1,0,null,1,"DAYS",5008],[295,"CDISCPILOT01","701","701","01-701-1047","2013-02-12","2013-03-09","Placebo",0,85,">80",3,"WHITE",1,"F","Y","Y","N","Week 8",8,"AMBUL ECG REMOVAL",6,46,"2013-03-29","Word Recognition","ACITM08",8,"5","3","2","66.6666666666666","","Y","","2-84",56,10,2,84,"DAYS",5023],[296,"CDISCPILOT01","701","701","01-701-1047","2013-02-12","2013-03-09","Placebo",0,85,">80",3,"WHITE",1,"F","Y","Y","N","Week 24",24,"RETRIEVAL",201,167,"2013-07-28","Word Recognition","ACITM08",8,"3","3","0","0","","Y","",">140",168,1,141,null,"DAYS",5038],[297,"CDISCPILOT01","701","701","01-701-1047","2013-02-12","2013-03-09","Placebo",0,85,">80",3,"WHITE",1,"F","Y","Y","N","Baseline",0,"BASELINE",3,1,"2013-02-12","Attention/Visual Search Task","ACITM09",9,"26","26","","","Y","Y","","<=1",1,0,null,1,"DAYS",5009],[298,"CDISCPILOT01","701","701","01-701-1047","2013-02-12","2013-03-09","Placebo",0,85,">80",3,"WHITE",1,"F","Y","Y","N","Week 8",8,"AMBUL ECG REMOVAL",6,46,"2013-03-29","Attention/Visual Search Task","ACITM09",9,"37","26","11","42.3076923076923","","Y","","2-84",56,10,2,84,"DAYS",5024],[299,"CDISCPILOT01","701","701","01-701-1047","2013-02-12","2013-03-09","Placebo",0,85,">80",3,"WHITE",1,"F","Y","Y","N","Week 24",24,"RETRIEVAL",201,167,"2013-07-28","Attention/Visual Search Task","ACITM09",9,"33","26","7","26.9230769230769","","Y","",">140",168,1,141,null,"DAYS",5039],[300,"CDISCPILOT01","701","701","01-701-1047","2013-02-12","2013-03-09","Placebo",0,85,">80",3,"WHITE",1,"F","Y","Y","N","Baseline",0,"BASELINE",3,1,"2013-02-12","Maze Solution","ACITM10",10,"7","7","","","Y","Y","","<=1",1,0,null,1,"DAYS",5010],[301,"CDISCPILOT01","701","701","01-701-1047","2013-02-12","2013-03-09","Placebo",0,85,">80",3,"WHITE",1,"F","Y","Y","N","Week 8",8,"AMBUL ECG REMOVAL",6,46,"2013-03-29","Maze Solution","ACITM10",10,"5","7","-2","-28.5714285714285","","Y","","2-84",56,10,2,84,"DAYS",5025],[302,"CDISCPILOT01","701","701","01-701-1047","2013-02-12","2013-03-09","Placebo",0,85,">80",3,"WHITE",1,"F","Y","Y","N","Week 24",24,"RETRIEVAL",201,167,"2013-07-28","Maze Solution","ACITM10",10,"5","7","-2","-28.5714285714285","","Y","",">140",168,1,141,null,"DAYS",5040],[303,"CDISCPILOT01","701","701","01-701-1047","2013-02-12","2013-03-09","Placebo",0,85,">80",3,"WHITE",1,"F","Y","Y","N","Baseline",0,"BASELINE",3,1,"2013-02-12","Spoken Language Ability","ACITM11",11,"0","0","","","Y","Y","","<=1",1,0,null,1,"DAYS",5011],[304,"CDISCPILOT01","701","701","01-701-1047","2013-02-12","2013-03-09","Placebo",0,85,">80",3,"WHITE",1,"F","Y","Y","N","Week 8",8,"AMBUL ECG REMOVAL",6,46,"2013-03-29","Spoken Language Ability","ACITM11",11,"0","0","0","","","Y","","2-84",56,10,2,84,"DAYS",5026],[305,"CDISCPILOT01","701","701","01-701-1047","2013-02-12","2013-03-09","Placebo",0,85,">80",3,"WHITE",1,"F","Y","Y","N","Week 24",24,"RETRIEVAL",201,167,"2013-07-28","Spoken Language Ability","ACITM11",11,"1","0","1","","","Y","",">140",168,1,141,null,"DAYS",5041],[306,"CDISCPILOT01","701","701","01-701-1047","2013-02-12","2013-03-09","Placebo",0,85,">80",3,"WHITE",1,"F","Y","Y","N","Baseline",0,"BASELINE",3,1,"2013-02-12","Comprehension Of Spoken Language","ACITM12",12,"0","0","","","Y","Y","","<=1",1,0,null,1,"DAYS",5012],[307,"CDISCPILOT01","701","701","01-701-1047","2013-02-12","2013-03-09","Placebo",0,85,">80",3,"WHITE",1,"F","Y","Y","N","Week 8",8,"AMBUL ECG REMOVAL",6,46,"2013-03-29","Comprehension Of Spoken Language","ACITM12",12,"0","0","0","","","Y","","2-84",56,10,2,84,"DAYS",5027],[308,"CDISCPILOT01","701","701","01-701-1047","2013-02-12","2013-03-09","Placebo",0,85,">80",3,"WHITE",1,"F","Y","Y","N","Week 24",24,"RETRIEVAL",201,167,"2013-07-28","Comprehension Of Spoken Language","ACITM12",12,"2","0","2","","","Y","",">140",168,1,141,null,"DAYS",5042],[309,"CDISCPILOT01","701","701","01-701-1047","2013-02-12","2013-03-09","Placebo",0,85,">80",3,"WHITE",1,"F","Y","Y","N","Baseline",0,"BASELINE",3,1,"2013-02-12","Word Finding Difficulty In Spontaneous S","ACITM13",13,"0","0","","","Y","Y","","<=1",1,0,null,1,"DAYS",5013],[310,"CDISCPILOT01","701","701","01-701-1047","2013-02-12","2013-03-09","Placebo",0,85,">80",3,"WHITE",1,"F","Y","Y","N","Week 8",8,"AMBUL ECG REMOVAL",6,46,"2013-03-29","Word Finding Difficulty In Spontaneous S","ACITM13",13,"0","0","0","","","Y","","2-84",56,10,2,84,"DAYS",5028],[311,"CDISCPILOT01","701","701","01-701-1047","2013-02-12","2013-03-09","Placebo",0,85,">80",3,"WHITE",1,"F","Y","Y","N","Week 24",24,"RETRIEVAL",201,167,"2013-07-28","Word Finding Difficulty In Spontaneous S","ACITM13",13,"1","0","1","","","Y","",">140",168,1,141,null,"DAYS",5043],[312,"CDISCPILOT01","701","701","01-701-1047","2013-02-12","2013-03-09","Placebo",0,85,">80",3,"WHITE",1,"F","Y","Y","N","Baseline",0,"BASELINE",3,1,"2013-02-12","Recall Of Test Instructions","ACITM14",14,"0","0","","","Y","Y","","<=1",1,0,null,1,"DAYS",5014],[313,"CDISCPILOT01","701","701","01-701-1047","2013-02-12","2013-03-09","Placebo",0,85,">80",3,"WHITE",1,"F","Y","Y","N","Week 8",8,"AMBUL ECG REMOVAL",6,46,"2013-03-29","Recall Of Test Instructions","ACITM14",14,"0","0","0","","","Y","","2-84",56,10,2,84,"DAYS",5029],[314,"CDISCPILOT01","701","701","01-701-1047","2013-02-12","2013-03-09","Placebo",0,85,">80",3,"WHITE",1,"F","Y","Y","N","Week 24",24,"RETRIEVAL",201,167,"2013-07-28","Recall Of Test Instructions","ACITM14",14,"2","0","2","","","Y","",">140",168,1,141,null,"DAYS",5044],[315,"CDISCPILOT01","701","701","01-701-1047","2013-02-12","2013-03-09","Placebo",0,85,">80",3,"WHITE",1,"F","Y","Y","N","Baseline",0,"BASELINE",3,1,"2013-02-12","Adas-Cog(11) Subscore","ACTOT",15,"10","10","","","Y","Y","","<=1",1,0,null,1,"DAYS",5015],[316,"CDISCPILOT01","701","701","01-701-1047","2013-02-12","2013-03-09","Placebo",0,85,">80",3,"WHITE",1,"F","Y","Y","N","Week 8",8,"AMBUL ECG REMOVAL",6,46,"2013-03-29","Adas-Cog(11) Subscore","ACTOT",15,"14","10","4","40","","Y","","2-84",56,10,2,84,"DAYS",5030],[317,"CDISCPILOT01","701","701","01-701-1047","2013-02-12","2013-03-09","Placebo",0,85,">80",3,"WHITE",1,"F","Y","Y","N","Week 16",16,"AMBUL ECG REMOVAL",6,46,"2013-03-29","Adas-Cog(11) Subscore","ACTOT",15,"14","10","4","40","","Y","LOCF","85-140",112,66,85,140,"DAYS",5030],[318,"CDISCPILOT01","701","701","01-701-1047","2013-02-12","2013-03-09","Placebo",0,85,">80",3,"WHITE",1,"F","Y","Y","N","Week 24",24,"RETRIEVAL",201,167,"2013-07-28","Adas-Cog(11) Subscore","ACTOT",15,"19","10","9","90","","Y","",">140",168,1,141,null,"DAYS",5045],[319,"CDISCPILOT01","701","701","01-701-1097","2014-01-01","2014-07-09","Xanomeline Low Dose",54,68,"65-80",2,"WHITE",1,"M","Y","Y","Y","Baseline",0,"BASELINE",3,1,"2014-01-01","Word Recall Task","ACITM01",1,"10","10","","","Y","Y","","<=1",1,0,null,1,"DAYS",5001],[320,"CDISCPILOT01","701","701","01-701-1097","2014-01-01","2014-07-09","Xanomeline Low Dose",54,68,"65-80",2,"WHITE",1,"M","Y","Y","Y","Week 8",8,"WEEK 8",8,57,"2014-02-26","Word Recall Task","ACITM01",1,"9","10","-1","-10","","Y","","2-84",56,1,2,84,"DAYS",5016],[321,"CDISCPILOT01","701","701","01-701-1097","2014-01-01","2014-07-09","Xanomeline Low Dose",54,68,"65-80",2,"WHITE",1,"M","Y","Y","Y","Week 16",16,"WEEK 16",10,113,"2014-04-23","Word Recall Task","ACITM01",1,"9","10","-1","-10","","Y","","85-140",112,1,85,140,"DAYS",5031],[322,"CDISCPILOT01","701","701","01-701-1097","2014-01-01","2014-07-09","Xanomeline Low Dose",54,68,"65-80",2,"WHITE",1,"M","Y","Y","Y","Week 24",24,"WEEK 24",12,169,"2014-06-18","Word Recall Task","ACITM01",1,"9","10","-1","-10","","Y","",">140",168,1,141,null,"DAYS",5046],[323,"CDISCPILOT01","701","701","01-701-1097","2014-01-01","2014-07-09","Xanomeline Low Dose",54,68,"65-80",2,"WHITE",1,"M","Y","Y","Y","Baseline",0,"BASELINE",3,1,"2014-01-01","Naming Objects And Fingers (Refer To 5 C","ACITM02",2,"5","5","","","Y","Y","","<=1",1,0,null,1,"DAYS",5002],[324,"CDISCPILOT01","701","701","01-701-1097","2014-01-01","2014-07-09","Xanomeline Low Dose",54,68,"65-80",2,"WHITE",1,"M","Y","Y","Y","Week 8",8,"WEEK 8",8,57,"2014-02-26","Naming Objects And Fingers (Refer To 5 C","ACITM02",2,"5","5","0","0","","Y","","2-84",56,1,2,84,"DAYS",5017],[325,"CDISCPILOT01","701","701","01-701-1097","2014-01-01","2014-07-09","Xanomeline Low Dose",54,68,"65-80",2,"WHITE",1,"M","Y","Y","Y","Week 16",16,"WEEK 16",10,113,"2014-04-23","Naming Objects And Fingers (Refer To 5 C","ACITM02",2,"5","5","0","0","","Y","","85-140",112,1,85,140,"DAYS",5032],[326,"CDISCPILOT01","701","701","01-701-1097","2014-01-01","2014-07-09","Xanomeline Low Dose",54,68,"65-80",2,"WHITE",1,"M","Y","Y","Y","Week 24",24,"WEEK 24",12,169,"2014-06-18","Naming Objects And Fingers (Refer To 5 C","ACITM02",2,"5","5","0","0","","Y","",">140",168,1,141,null,"DAYS",5047],[327,"CDISCPILOT01","701","701","01-701-1097","2014-01-01","2014-07-09","Xanomeline Low Dose",54,68,"65-80",2,"WHITE",1,"M","Y","Y","Y","Baseline",0,"BASELINE",3,1,"2014-01-01","Delayed Word Recall","ACITM03",3,"10","10","","","Y","Y","","<=1",1,0,null,1,"DAYS",5003],[328,"CDISCPILOT01","701","701","01-701-1097","2014-01-01","2014-07-09","Xanomeline Low Dose",54,68,"65-80",2,"WHITE",1,"M","Y","Y","Y","Week 8",8,"WEEK 8",8,57,"2014-02-26","Delayed Word Recall","ACITM03",3,"10","10","0","0","","Y","","2-84",56,1,2,84,"DAYS",5018],[329,"CDISCPILOT01","701","701","01-701-1097","2014-01-01","2014-07-09","Xanomeline Low Dose",54,68,"65-80",2,"WHITE",1,"M","Y","Y","Y","Week 16",16,"WEEK 16",10,113,"2014-04-23","Delayed Word Recall","ACITM03",3,"10","10","0","0","","Y","","85-140",112,1,85,140,"DAYS",5033],[330,"CDISCPILOT01","701","701","01-701-1097","2014-01-01","2014-07-09","Xanomeline Low Dose",54,68,"65-80",2,"WHITE",1,"M","Y","Y","Y","Week 24",24,"WEEK 24",12,169,"2014-06-18","Delayed Word Recall","ACITM03",3,"10","10","0","0","","Y","",">140",168,1,141,null,"DAYS",5048],[331,"CDISCPILOT01","701","701","01-701-1097","2014-01-01","2014-07-09","Xanomeline Low Dose",54,68,"65-80",2,"WHITE",1,"M","Y","Y","Y","Baseline",0,"BASELINE",3,1,"2014-01-01","Commands","ACITM04",4,"3","3","","","Y","Y","","<=1",1,0,null,1,"DAYS",5004],[332,"CDISCPILOT01","701","701","01-701-1097","2014-01-01","2014-07-09","Xanomeline Low Dose",54,68,"65-80",2,"WHITE",1,"M","Y","Y","Y","Week 8",8,"WEEK 8",8,57,"2014-02-26","Commands","ACITM04",4,"1","3","-2","-66.6666666666666","","Y","","2-84",56,1,2,84,"DAYS",5019],[333,"CDISCPILOT01","701","701","01-701-1097","2014-01-01","2014-07-09","Xanomeline Low Dose",54,68,"65-80",2,"WHITE",1,"M","Y","Y","Y","Week 16",16,"WEEK 16",10,113,"2014-04-23","Commands","ACITM04",4,"1","3","-2","-66.6666666666666","","Y","","85-140",112,1,85,140,"DAYS",5034],[334,"CDISCPILOT01","701","701","01-701-1097","2014-01-01","2014-07-09","Xanomeline Low Dose",54,68,"65-80",2,"WHITE",1,"M","Y","Y","Y","Week 24",24,"WEEK 24",12,169,"2014-06-18","Commands","ACITM04",4,"3","3","0","0","","Y","",">140",168,1,141,null,"DAYS",5049],[335,"CDISCPILOT01","701","701","01-701-1097","2014-01-01","2014-07-09","Xanomeline Low Dose",54,68,"65-80",2,"WHITE",1,"M","Y","Y","Y","Baseline",0,"BASELINE",3,1,"2014-01-01","Constructional Praxis","ACITM05",5,"4","4","","","Y","Y","","<=1",1,0,null,1,"DAYS",5005],[336,"CDISCPILOT01","701","701","01-701-1097","2014-01-01","2014-07-09","Xanomeline Low Dose",54,68,"65-80",2,"WHITE",1,"M","Y","Y","Y","Week 8",8,"WEEK 8",8,57,"2014-02-26","Constructional Praxis","ACITM05",5,"3","4","-1","-25","","Y","","2-84",56,1,2,84,"DAYS",5020],[337,"CDISCPILOT01","701","701","01-701-1097","2014-01-01","2014-07-09","Xanomeline Low Dose",54,68,"65-80",2,"WHITE",1,"M","Y","Y","Y","Week 16",16,"WEEK 16",10,113,"2014-04-23","Constructional Praxis","ACITM05",5,"4","4","0","0","","Y","","85-140",112,1,85,140,"DAYS",5035],[338,"CDISCPILOT01","701","701","01-701-1097","2014-01-01","2014-07-09","Xanomeline Low Dose",54,68,"65-80",2,"WHITE",1,"M","Y","Y","Y","Week 24",24,"WEEK 24",12,169,"2014-06-18","Constructional Praxis","ACITM05",5,"2","4","-2","-50","","Y","",">140",168,1,141,null,"DAYS",5050],[339,"CDISCPILOT01","701","701","01-701-1097","2014-01-01","2014-07-09","Xanomeline Low Dose",54,68,"65-80",2,"WHITE",1,"M","Y","Y","Y","Baseline",0,"BASELINE",3,1,"2014-01-01","Ideational Praxis","ACITM06",6,"5","5","","","Y","Y","","<=1",1,0,null,1,"DAYS",5006],[340,"CDISCPILOT01","701","701","01-701-1097","2014-01-01","2014-07-09","Xanomeline Low Dose",54,68,"65-80",2,"WHITE",1,"M","Y","Y","Y","Week 8",8,"WEEK 8",8,57,"2014-02-26","Ideational Praxis","ACITM06",6,"4","5","-1","-20","","Y","","2-84",56,1,2,84,"DAYS",5021],[341,"CDISCPILOT01","701","701","01-701-1097","2014-01-01","2014-07-09","Xanomeline Low Dose",54,68,"65-80",2,"WHITE",1,"M","Y","Y","Y","Week 16",16,"WEEK 16",10,113,"2014-04-23","Ideational Praxis","ACITM06",6,"4","5","-1","-20","","Y","","85-140",112,1,85,140,"DAYS",5036],[342,"CDISCPILOT01","701","701","01-701-1097","2014-01-01","2014-07-09","Xanomeline Low Dose",54,68,"65-80",2,"WHITE",1,"M","Y","Y","Y","Week 24",24,"WEEK 24",12,169,"2014-06-18","Ideational Praxis","ACITM06",6,"5","5","0","0","","Y","",">140",168,1,141,null,"DAYS",5051],[343,"CDISCPILOT01","701","701","01-701-1097","2014-01-01","2014-07-09","Xanomeline Low Dose",54,68,"65-80",2,"WHITE",1,"M","Y","Y","Y","Baseline",0,"BASELINE",3,1,"2014-01-01","Orientation","ACITM07",7,"7","7","","","Y","Y","","<=1",1,0,null,1,"DAYS",5007],[344,"CDISCPILOT01","701","701","01-701-1097","2014-01-01","2014-07-09","Xanomeline Low Dose",54,68,"65-80",2,"WHITE",1,"M","Y","Y","Y","Week 8",8,"WEEK 8",8,57,"2014-02-26","Orientation","ACITM07",7,"7","7","0","0","","Y","","2-84",56,1,2,84,"DAYS",5022],[345,"CDISCPILOT01","701","701","01-701-1097","2014-01-01","2014-07-09","Xanomeline Low Dose",54,68,"65-80",2,"WHITE",1,"M","Y","Y","Y","Week 16",16,"WEEK 16",10,113,"2014-04-23","Orientation","ACITM07",7,"7","7","0","0","","Y","","85-140",112,1,85,140,"DAYS",5037],[346,"CDISCPILOT01","701","701","01-701-1097","2014-01-01","2014-07-09","Xanomeline Low Dose",54,68,"65-80",2,"WHITE",1,"M","Y","Y","Y","Week 24",24,"WEEK 24",12,169,"2014-06-18","Orientation","ACITM07",7,"7","7","0","0","","Y","",">140",168,1,141,null,"DAYS",5052],[347,"CDISCPILOT01","701","701","01-701-1097","2014-01-01","2014-07-09","Xanomeline Low Dose",54,68,"65-80",2,"WHITE",1,"M","Y","Y","Y","Baseline",0,"BASELINE",3,1,"2014-01-01","Word Recognition","ACITM08",8,"","","","","Y","Y","","<=1",1,0,null,1,"DAYS",5008],[348,"CDISCPILOT01","701","701","01-701-1097","2014-01-01","2014-07-09","Xanomeline Low Dose",54,68,"65-80",2,"WHITE",1,"M","Y","Y","Y","Week 8",8,"WEEK 8",8,57,"2014-02-26","Word Recognition","ACITM08",8,"12","","","","","Y","","2-84",56,1,2,84,"DAYS",5023],[349,"CDISCPILOT01","701","701","01-701-1097","2014-01-01","2014-07-09","Xanomeline Low Dose",54,68,"65-80",2,"WHITE",1,"M","Y","Y","Y","Week 16",16,"WEEK 16",10,113,"2014-04-23","Word Recognition","ACITM08",8,"10","","","","","Y","","85-140",112,1,85,140,"DAYS",5038],[350,"CDISCPILOT01","701","701","01-701-1097","2014-01-01","2014-07-09","Xanomeline Low Dose",54,68,"65-80",2,"WHITE",1,"M","Y","Y","Y","Week 24",24,"WEEK 24",12,169,"2014-06-18","Word Recognition","ACITM08",8,"9","","","","","Y","",">140",168,1,141,null,"DAYS",5053],[351,"CDISCPILOT01","701","701","01-701-1097","2014-01-01","2014-07-09","Xanomeline Low Dose",54,68,"65-80",2,"WHITE",1,"M","Y","Y","Y","Baseline",0,"BASELINE",3,1,"2014-01-01","Attention/Visual Search Task","ACITM09",9,"0","0","","","Y","Y","","<=1",1,0,null,1,"DAYS",5009],[352,"CDISCPILOT01","701","701","01-701-1097","2014-01-01","2014-07-09","Xanomeline Low Dose",54,68,"65-80",2,"WHITE",1,"M","Y","Y","Y","Week 8",8,"WEEK 8",8,57,"2014-02-26","Attention/Visual Search Task","ACITM09",9,"5","0","5","","","Y","","2-84",56,1,2,84,"DAYS",5024],[353,"CDISCPILOT01","701","701","01-701-1097","2014-01-01","2014-07-09","Xanomeline Low Dose",54,68,"65-80",2,"WHITE",1,"M","Y","Y","Y","Week 16",16,"WEEK 16",10,113,"2014-04-23","Attention/Visual Search Task","ACITM09",9,"4","0","4","","","Y","","85-140",112,1,85,140,"DAYS",5039],[354,"CDISCPILOT01","701","701","01-701-1097","2014-01-01","2014-07-09","Xanomeline Low Dose",54,68,"65-80",2,"WHITE",1,"M","Y","Y","Y","Week 24",24,"WEEK 24",12,169,"2014-06-18","Attention/Visual Search Task","ACITM09",9,"5","0","5","","","Y","",">140",168,1,141,null,"DAYS",5054],[355,"CDISCPILOT01","701","701","01-701-1097","2014-01-01","2014-07-09","Xanomeline Low Dose",54,68,"65-80",2,"WHITE",1,"M","Y","Y","Y","Baseline",0,"BASELINE",3,1,"2014-01-01","Maze Solution","ACITM10",10,"240","240","","","Y","Y","","<=1",1,0,null,1,"DAYS",5010],[356,"CDISCPILOT01","701","701","01-701-1097","2014-01-01","2014-07-09","Xanomeline Low Dose",54,68,"65-80",2,"WHITE",1,"M","Y","Y","Y","Week 8",8,"WEEK 8",8,57,"2014-02-26","Maze Solution","ACITM10",10,"240","240","0","0","","Y","","2-84",56,1,2,84,"DAYS",5025],[357,"CDISCPILOT01","701","701","01-701-1097","2014-01-01","2014-07-09","Xanomeline Low Dose",54,68,"65-80",2,"WHITE",1,"M","Y","Y","Y","Week 16",16,"WEEK 16",10,113,"2014-04-23","Maze Solution","ACITM10",10,"41","240","-199","-82.9166666666666","","Y","","85-140",112,1,85,140,"DAYS",5040],[358,"CDISCPILOT01","701","701","01-701-1097","2014-01-01","2014-07-09","Xanomeline Low Dose",54,68,"65-80",2,"WHITE",1,"M","Y","Y","Y","Week 24",24,"WEEK 24",12,169,"2014-06-18","Maze Solution","ACITM10",10,"11","240","-229","-95.4166666666666","","Y","",">140",168,1,141,null,"DAYS",5055],[359,"CDISCPILOT01","701","701","01-701-1097","2014-01-01","2014-07-09","Xanomeline Low Dose",54,68,"65-80",2,"WHITE",1,"M","Y","Y","Y","Baseline",0,"BASELINE",3,1,"2014-01-01","Spoken Language Ability","ACITM11",11,"3","3","","","Y","Y","","<=1",1,0,null,1,"DAYS",5011],[360,"CDISCPILOT01","701","701","01-701-1097","2014-01-01","2014-07-09","Xanomeline Low Dose",54,68,"65-80",2,"WHITE",1,"M","Y","Y","Y","Week 8",8,"WEEK 8",8,57,"2014-02-26","Spoken Language Ability","ACITM11",11,"3","3","0","0","","Y","","2-84",56,1,2,84,"DAYS",5026],[361,"CDISCPILOT01","701","701","01-701-1097","2014-01-01","2014-07-09","Xanomeline Low Dose",54,68,"65-80",2,"WHITE",1,"M","Y","Y","Y","Week 16",16,"WEEK 16",10,113,"2014-04-23","Spoken Language Ability","ACITM11",11,"3","3","0","0","","Y","","85-140",112,1,85,140,"DAYS",5041],[362,"CDISCPILOT01","701","701","01-701-1097","2014-01-01","2014-07-09","Xanomeline Low Dose",54,68,"65-80",2,"WHITE",1,"M","Y","Y","Y","Week 24",24,"WEEK 24",12,169,"2014-06-18","Spoken Language Ability","ACITM11",11,"2","3","-1","-33.3333333333333","","Y","",">140",168,1,141,null,"DAYS",5056],[363,"CDISCPILOT01","701","701","01-701-1097","2014-01-01","2014-07-09","Xanomeline Low Dose",54,68,"65-80",2,"WHITE",1,"M","Y","Y","Y","Baseline",0,"BASELINE",3,1,"2014-01-01","Comprehension Of Spoken Language","ACITM12",12,"3","3","","","Y","Y","","<=1",1,0,null,1,"DAYS",5012],[364,"CDISCPILOT01","701","701","01-701-1097","2014-01-01","2014-07-09","Xanomeline Low Dose",54,68,"65-80",2,"WHITE",1,"M","Y","Y","Y","Week 8",8,"WEEK 8",8,57,"2014-02-26","Comprehension Of Spoken Language","ACITM12",12,"2","3","-1","-33.3333333333333","","Y","","2-84",56,1,2,84,"DAYS",5027],[365,"CDISCPILOT01","701","701","01-701-1097","2014-01-01","2014-07-09","Xanomeline Low Dose",54,68,"65-80",2,"WHITE",1,"M","Y","Y","Y","Week 16",16,"WEEK 16",10,113,"2014-04-23","Comprehension Of Spoken Language","ACITM12",12,"2","3","-1","-33.3333333333333","","Y","","85-140",112,1,85,140,"DAYS",5042],[366,"CDISCPILOT01","701","701","01-701-1097","2014-01-01","2014-07-09","Xanomeline Low Dose",54,68,"65-80",2,"WHITE",1,"M","Y","Y","Y","Week 24",24,"WEEK 24",12,169,"2014-06-18","Comprehension Of Spoken Language","ACITM12",12,"3","3","0","0","","Y","",">140",168,1,141,null,"DAYS",5057],[367,"CDISCPILOT01","701","701","01-701-1097","2014-01-01","2014-07-09","Xanomeline Low Dose",54,68,"65-80",2,"WHITE",1,"M","Y","Y","Y","Baseline",0,"BASELINE",3,1,"2014-01-01","Word Finding Difficulty In Spontaneous S","ACITM13",13,"4","4","","","Y","Y","","<=1",1,0,null,1,"DAYS",5013],[368,"CDISCPILOT01","701","701","01-701-1097","2014-01-01","2014-07-09","Xanomeline Low Dose",54,68,"65-80",2,"WHITE",1,"M","Y","Y","Y","Week 8",8,"WEEK 8",8,57,"2014-02-26","Word Finding Difficulty In Spontaneous S","ACITM13",13,"4","4","0","0","","Y","","2-84",56,1,2,84,"DAYS",5028],[369,"CDISCPILOT01","701","701","01-701-1097","2014-01-01","2014-07-09","Xanomeline Low Dose",54,68,"65-80",2,"WHITE",1,"M","Y","Y","Y","Week 16",16,"WEEK 16",10,113,"2014-04-23","Word Finding Difficulty In Spontaneous S","ACITM13",13,"2","4","-2","-50","","Y","","85-140",112,1,85,140,"DAYS",5043],[370,"CDISCPILOT01","701","701","01-701-1097","2014-01-01","2014-07-09","Xanomeline Low Dose",54,68,"65-80",2,"WHITE",1,"M","Y","Y","Y","Week 24",24,"WEEK 24",12,169,"2014-06-18","Word Finding Difficulty In Spontaneous S","ACITM13",13,"2","4","-2","-50","","Y","",">140",168,1,141,null,"DAYS",5058],[371,"CDISCPILOT01","701","701","01-701-1097","2014-01-01","2014-07-09","Xanomeline Low Dose",54,68,"65-80",2,"WHITE",1,"M","Y","Y","Y","Baseline",0,"BASELINE",3,1,"2014-01-01","Recall Of Test Instructions","ACITM14",14,"3","3","","","Y","Y","","<=1",1,0,null,1,"DAYS",5014],[372,"CDISCPILOT01","701","701","01-701-1097","2014-01-01","2014-07-09","Xanomeline Low Dose",54,68,"65-80",2,"WHITE",1,"M","Y","Y","Y","Week 8",8,"WEEK 8",8,57,"2014-02-26","Recall Of Test Instructions","ACITM14",14,"4","3","1","33.3333333333333","","Y","","2-84",56,1,2,84,"DAYS",5029],[373,"CDISCPILOT01","701","701","01-701-1097","2014-01-01","2014-07-09","Xanomeline Low Dose",54,68,"65-80",2,"WHITE",1,"M","Y","Y","Y","Week 16",16,"WEEK 16",10,113,"2014-04-23","Recall Of Test Instructions","ACITM14",14,"2","3","-1","-33.3333333333333","","Y","","85-140",112,1,85,140,"DAYS",5044],[374,"CDISCPILOT01","701","701","01-701-1097","2014-01-01","2014-07-09","Xanomeline Low Dose",54,68,"65-80",2,"WHITE",1,"M","Y","Y","Y","Week 24",24,"WEEK 24",12,169,"2014-06-18","Recall Of Test Instructions","ACITM14",14,"4","3","1","33.3333333333333","","Y","",">140",168,1,141,null,"DAYS",5059],[375,"CDISCPILOT01","701","701","01-701-1097","2014-01-01","2014-07-09","Xanomeline Low Dose",54,68,"65-80",2,"WHITE",1,"M","Y","Y","Y","Baseline",0,"BASELINE",3,1,"2014-01-01","Adas-Cog(11) Subscore","ACTOT",15,"56.7241379310344","56.7241379310344","","","Y","Y","","<=1",1,0,null,1,"DAYS",5015],[376,"CDISCPILOT01","701","701","01-701-1097","2014-01-01","2014-07-09","Xanomeline Low Dose",54,68,"65-80",2,"WHITE",1,"M","Y","Y","Y","Week 8",8,"WEEK 8",8,57,"2014-02-26","Adas-Cog(11) Subscore","ACTOT",15,"54","56.7241379310344","-2.72413793103448","-4.80243161094225","","Y","","2-84",56,1,2,84,"DAYS",5030],[377,"CDISCPILOT01","701","701","01-701-1097","2014-01-01","2014-07-09","Xanomeline Low Dose",54,68,"65-80",2,"WHITE",1,"M","Y","Y","Y","Week 16",16,"WEEK 16",10,113,"2014-04-23","Adas-Cog(11) Subscore","ACTOT",15,"49","56.7241379310344","-7.72413793103448","-13.6170212765957","","Y","","85-140",112,1,85,140,"DAYS",5045],[378,"CDISCPILOT01","701","701","01-701-1097","2014-01-01","2014-07-09","Xanomeline Low Dose",54,68,"65-80",2,"WHITE",1,"M","Y","Y","Y","Week 24",24,"WEEK 24",12,169,"2014-06-18","Adas-Cog(11) Subscore","ACTOT",15,"51","56.7241379310344","-5.72413793103448","-10.0911854103343","","Y","",">140",168,1,141,null,"DAYS",5060],[379,"CDISCPILOT01","701","701","01-701-1111","2012-09-07","2012-09-16","Xanomeline Low Dose",54,81,">80",3,"WHITE",1,"F","Y","Y","N","Baseline",0,"BASELINE",3,1,"2012-09-07","Word Recall Task","ACITM01",1,"5","5","","","Y","Y","","<=1",1,0,null,1,"DAYS",5001],[380,"CDISCPILOT01","701","701","01-701-1111","2012-09-07","2012-09-16","Xanomeline Low Dose",54,81,">80",3,"WHITE",1,"F","Y","Y","N","Week 8",8,"WEEK 2",4,11,"2012-09-17","Word Recall Task","ACITM01",1,"4","5","-1","-20","","Y","","2-84",56,45,2,84,"DAYS",5016],[381,"CDISCPILOT01","701","701","01-701-1111","2012-09-07","2012-09-16","Xanomeline Low Dose",54,81,">80",3,"WHITE",1,"F","Y","Y","N","Week 24",24,"RETRIEVAL",201,169,"2013-02-22","Word Recall Task","ACITM01",1,"5","5","0","0","","Y","",">140",168,1,141,null,"DAYS",5031],[382,"CDISCPILOT01","701","701","01-701-1111","2012-09-07","2012-09-16","Xanomeline Low Dose",54,81,">80",3,"WHITE",1,"F","Y","Y","N","Baseline",0,"BASELINE",3,1,"2012-09-07","Naming Objects And Fingers (Refer To 5 C","ACITM02",2,"0","0","","","Y","Y","","<=1",1,0,null,1,"DAYS",5002],[383,"CDISCPILOT01","701","701","01-701-1111","2012-09-07","2012-09-16","Xanomeline Low Dose",54,81,">80",3,"WHITE",1,"F","Y","Y","N","Week 8",8,"WEEK 2",4,11,"2012-09-17","Naming Objects And Fingers (Refer To 5 C","ACITM02",2,"0","0","0","","","Y","","2-84",56,45,2,84,"DAYS",5017],[384,"CDISCPILOT01","701","701","01-701-1111","2012-09-07","2012-09-16","Xanomeline Low Dose",54,81,">80",3,"WHITE",1,"F","Y","Y","N","Week 24",24,"RETRIEVAL",201,169,"2013-02-22","Naming Objects And Fingers (Refer To 5 C","ACITM02",2,"0","0","0","","","Y","",">140",168,1,141,null,"DAYS",5032],[385,"CDISCPILOT01","701","701","01-701-1111","2012-09-07","2012-09-16","Xanomeline Low Dose",54,81,">80",3,"WHITE",1,"F","Y","Y","N","Baseline",0,"BASELINE",3,1,"2012-09-07","Delayed Word Recall","ACITM03",3,"6","6","","","Y","Y","","<=1",1,0,null,1,"DAYS",5003],[386,"CDISCPILOT01","701","701","01-701-1111","2012-09-07","2012-09-16","Xanomeline Low Dose",54,81,">80",3,"WHITE",1,"F","Y","Y","N","Week 8",8,"WEEK 2",4,11,"2012-09-17","Delayed Word Recall","ACITM03",3,"4","6","-2","-33.3333333333333","","Y","","2-84",56,45,2,84,"DAYS",5018],[387,"CDISCPILOT01","701","701","01-701-1111","2012-09-07","2012-09-16","Xanomeline Low Dose",54,81,">80",3,"WHITE",1,"F","Y","Y","N","Week 24",24,"RETRIEVAL",201,169,"2013-02-22","Delayed Word Recall","ACITM03",3,"5","6","-1","-16.6666666666666","","Y","",">140",168,1,141,null,"DAYS",5033],[388,"CDISCPILOT01","701","701","01-701-1111","2012-09-07","2012-09-16","Xanomeline Low Dose",54,81,">80",3,"WHITE",1,"F","Y","Y","N","Baseline",0,"BASELINE",3,1,"2012-09-07","Commands","ACITM04",4,"0","0","","","Y","Y","","<=1",1,0,null,1,"DAYS",5004],[389,"CDISCPILOT01","701","701","01-701-1111","2012-09-07","2012-09-16","Xanomeline Low Dose",54,81,">80",3,"WHITE",1,"F","Y","Y","N","Week 8",8,"WEEK 2",4,11,"2012-09-17","Commands","ACITM04",4,"0","0","0","","","Y","","2-84",56,45,2,84,"DAYS",5019],[390,"CDISCPILOT01","701","701","01-701-1111","2012-09-07","2012-09-16","Xanomeline Low Dose",54,81,">80",3,"WHITE",1,"F","Y","Y","N","Week 24",24,"RETRIEVAL",201,169,"2013-02-22","Commands","ACITM04",4,"0","0","0","","","Y","",">140",168,1,141,null,"DAYS",5034],[391,"CDISCPILOT01","701","701","01-701-1111","2012-09-07","2012-09-16","Xanomeline Low Dose",54,81,">80",3,"WHITE",1,"F","Y","Y","N","Baseline",0,"BASELINE",3,1,"2012-09-07","Constructional Praxis","ACITM05",5,"0","0","","","Y","Y","","<=1",1,0,null,1,"DAYS",5005],[392,"CDISCPILOT01","701","701","01-701-1111","2012-09-07","2012-09-16","Xanomeline Low Dose",54,81,">80",3,"WHITE",1,"F","Y","Y","N","Week 8",8,"WEEK 2",4,11,"2012-09-17","Constructional Praxis","ACITM05",5,"0","0","0","","","Y","","2-84",56,45,2,84,"DAYS",5020],[393,"CDISCPILOT01","701","701","01-701-1111","2012-09-07","2012-09-16","Xanomeline Low Dose",54,81,">80",3,"WHITE",1,"F","Y","Y","N","Week 24",24,"RETRIEVAL",201,169,"2013-02-22","Constructional Praxis","ACITM05",5,"0","0","0","","","Y","",">140",168,1,141,null,"DAYS",5035],[394,"CDISCPILOT01","701","701","01-701-1111","2012-09-07","2012-09-16","Xanomeline Low Dose",54,81,">80",3,"WHITE",1,"F","Y","Y","N","Baseline",0,"BASELINE",3,1,"2012-09-07","Ideational Praxis","ACITM06",6,"1","1","","","Y","Y","","<=1",1,0,null,1,"DAYS",5006],[395,"CDISCPILOT01","701","701","01-701-1111","2012-09-07","2012-09-16","Xanomeline Low Dose",54,81,">80",3,"WHITE",1,"F","Y","Y","N","Week 8",8,"WEEK 2",4,11,"2012-09-17","Ideational Praxis","ACITM06",6,"0","1","-1","-100","","Y","","2-84",56,45,2,84,"DAYS",5021],[396,"CDISCPILOT01","701","701","01-701-1111","2012-09-07","2012-09-16","Xanomeline Low Dose",54,81,">80",3,"WHITE",1,"F","Y","Y","N","Week 24",24,"RETRIEVAL",201,169,"2013-02-22","Ideational Praxis","ACITM06",6,"0","1","-1","-100","","Y","",">140",168,1,141,null,"DAYS",5036],[397,"CDISCPILOT01","701","701","01-701-1111","2012-09-07","2012-09-16","Xanomeline Low Dose",54,81,">80",3,"WHITE",1,"F","Y","Y","N","Baseline",0,"BASELINE",3,1,"2012-09-07","Orientation","ACITM07",7,"0","0","","","Y","Y","","<=1",1,0,null,1,"DAYS",5007],[398,"CDISCPILOT01","701","701","01-701-1111","2012-09-07","2012-09-16","Xanomeline Low Dose",54,81,">80",3,"WHITE",1,"F","Y","Y","N","Week 8",8,"WEEK 2",4,11,"2012-09-17","Orientation","ACITM07",7,"0","0","0","","","Y","","2-84",56,45,2,84,"DAYS",5022],[399,"CDISCPILOT01","701","701","01-701-1111","2012-09-07","2012-09-16","Xanomeline Low Dose",54,81,">80",3,"WHITE",1,"F","Y","Y","N","Week 24",24,"RETRIEVAL",201,169,"2013-02-22","Orientation","ACITM07",7,"1","0","1","","","Y","",">140",168,1,141,null,"DAYS",5037],[400,"CDISCPILOT01","701","701","01-701-1111","2012-09-07","2012-09-16","Xanomeline Low Dose",54,81,">80",3,"WHITE",1,"F","Y","Y","N","Baseline",0,"BASELINE",3,1,"2012-09-07","Word Recognition","ACITM08",8,"1","1","","","Y","Y","","<=1",1,0,null,1,"DAYS",5008],[401,"CDISCPILOT01","701","701","01-701-1111","2012-09-07","2012-09-16","Xanomeline Low Dose",54,81,">80",3,"WHITE",1,"F","Y","Y","N","Week 8",8,"WEEK 2",4,11,"2012-09-17","Word Recognition","ACITM08",8,"1","1","0","0","","Y","","2-84",56,45,2,84,"DAYS",5023],[402,"CDISCPILOT01","701","701","01-701-1111","2012-09-07","2012-09-16","Xanomeline Low Dose",54,81,">80",3,"WHITE",1,"F","Y","Y","N","Week 24",24,"RETRIEVAL",201,169,"2013-02-22","Word Recognition","ACITM08",8,"3","1","2","200","","Y","",">140",168,1,141,null,"DAYS",5038],[403,"CDISCPILOT01","701","701","01-701-1111","2012-09-07","2012-09-16","Xanomeline Low Dose",54,81,">80",3,"WHITE",1,"F","Y","Y","N","Baseline",0,"BASELINE",3,1,"2012-09-07","Attention/Visual Search Task","ACITM09",9,"31","31","","","Y","Y","","<=1",1,0,null,1,"DAYS",5009],[404,"CDISCPILOT01","701","701","01-701-1111","2012-09-07","2012-09-16","Xanomeline Low Dose",54,81,">80",3,"WHITE",1,"F","Y","Y","N","Week 8",8,"WEEK 2",4,11,"2012-09-17","Attention/Visual Search Task","ACITM09",9,"24","31","-7","-22.5806451612903","","Y","","2-84",56,45,2,84,"DAYS",5024],[405,"CDISCPILOT01","701","701","01-701-1111","2012-09-07","2012-09-16","Xanomeline Low Dose",54,81,">80",3,"WHITE",1,"F","Y","Y","N","Week 24",24,"RETRIEVAL",201,169,"2013-02-22","Attention/Visual Search Task","ACITM09",9,"31","31","0","0","","Y","",">140",168,1,141,null,"DAYS",5039],[406,"CDISCPILOT01","701","701","01-701-1111","2012-09-07","2012-09-16","Xanomeline Low Dose",54,81,">80",3,"WHITE",1,"F","Y","Y","N","Baseline",0,"BASELINE",3,1,"2012-09-07","Maze Solution","ACITM10",10,"3","3","","","Y","Y","","<=1",1,0,null,1,"DAYS",5010],[407,"CDISCPILOT01","701","701","01-701-1111","2012-09-07","2012-09-16","Xanomeline Low Dose",54,81,">80",3,"WHITE",1,"F","Y","Y","N","Week 8",8,"WEEK 2",4,11,"2012-09-17","Maze Solution","ACITM10",10,"7","3","4","133.333333333333","","Y","","2-84",56,45,2,84,"DAYS",5025],[408,"CDISCPILOT01","701","701","01-701-1111","2012-09-07","2012-09-16","Xanomeline Low Dose",54,81,">80",3,"WHITE",1,"F","Y","Y","N","Week 24",24,"RETRIEVAL",201,169,"2013-02-22","Maze Solution","ACITM10",10,"7","3","4","133.333333333333","","Y","",">140",168,1,141,null,"DAYS",5040],[409,"CDISCPILOT01","701","701","01-701-1111","2012-09-07","2012-09-16","Xanomeline Low Dose",54,81,">80",3,"WHITE",1,"F","Y","Y","N","Baseline",0,"BASELINE",3,1,"2012-09-07","Spoken Language Ability","ACITM11",11,"0","0","","","Y","Y","","<=1",1,0,null,1,"DAYS",5011],[410,"CDISCPILOT01","701","701","01-701-1111","2012-09-07","2012-09-16","Xanomeline Low Dose",54,81,">80",3,"WHITE",1,"F","Y","Y","N","Week 8",8,"WEEK 2",4,11,"2012-09-17","Spoken Language Ability","ACITM11",11,"0","0","0","","","Y","","2-84",56,45,2,84,"DAYS",5026],[411,"CDISCPILOT01","701","701","01-701-1111","2012-09-07","2012-09-16","Xanomeline Low Dose",54,81,">80",3,"WHITE",1,"F","Y","Y","N","Week 24",24,"RETRIEVAL",201,169,"2013-02-22","Spoken Language Ability","ACITM11",11,"0","0","0","","","Y","",">140",168,1,141,null,"DAYS",5041],[412,"CDISCPILOT01","701","701","01-701-1111","2012-09-07","2012-09-16","Xanomeline Low Dose",54,81,">80",3,"WHITE",1,"F","Y","Y","N","Baseline",0,"BASELINE",3,1,"2012-09-07","Comprehension Of Spoken Language","ACITM12",12,"0","0","","","Y","Y","","<=1",1,0,null,1,"DAYS",5012],[413,"CDISCPILOT01","701","701","01-701-1111","2012-09-07","2012-09-16","Xanomeline Low Dose",54,81,">80",3,"WHITE",1,"F","Y","Y","N","Week 8",8,"WEEK 2",4,11,"2012-09-17","Comprehension Of Spoken Language","ACITM12",12,"0","0","0","","","Y","","2-84",56,45,2,84,"DAYS",5027],[414,"CDISCPILOT01","701","701","01-701-1111","2012-09-07","2012-09-16","Xanomeline Low Dose",54,81,">80",3,"WHITE",1,"F","Y","Y","N","Week 24",24,"RETRIEVAL",201,169,"2013-02-22","Comprehension Of Spoken Language","ACITM12",12,"0","0","0","","","Y","",">140",168,1,141,null,"DAYS",5042],[415,"CDISCPILOT01","701","701","01-701-1111","2012-09-07","2012-09-16","Xanomeline Low Dose",54,81,">80",3,"WHITE",1,"F","Y","Y","N","Baseline",0,"BASELINE",3,1,"2012-09-07","Word Finding Difficulty In Spontaneous S","ACITM13",13,"0","0","","","Y","Y","","<=1",1,0,null,1,"DAYS",5013],[416,"CDISCPILOT01","701","701","01-701-1111","2012-09-07","2012-09-16","Xanomeline Low Dose",54,81,">80",3,"WHITE",1,"F","Y","Y","N","Week 8",8,"WEEK 2",4,11,"2012-09-17","Word Finding Difficulty In Spontaneous S","ACITM13",13,"0","0","0","","","Y","","2-84",56,45,2,84,"DAYS",5028],[417,"CDISCPILOT01","701","701","01-701-1111","2012-09-07","2012-09-16","Xanomeline Low Dose",54,81,">80",3,"WHITE",1,"F","Y","Y","N","Week 24",24,"RETRIEVAL",201,169,"2013-02-22","Word Finding Difficulty In Spontaneous S","ACITM13",13,"0","0","0","","","Y","",">140",168,1,141,null,"DAYS",5043],[418,"CDISCPILOT01","701","701","01-701-1111","2012-09-07","2012-09-16","Xanomeline Low Dose",54,81,">80",3,"WHITE",1,"F","Y","Y","N","Baseline",0,"BASELINE",3,1,"2012-09-07","Recall Of Test Instructions","ACITM14",14,"0","0","","","Y","Y","","<=1",1,0,null,1,"DAYS",5014],[419,"CDISCPILOT01","701","701","01-701-1111","2012-09-07","2012-09-16","Xanomeline Low Dose",54,81,">80",3,"WHITE",1,"F","Y","Y","N","Week 8",8,"WEEK 2",4,11,"2012-09-17","Recall Of Test Instructions","ACITM14",14,"0","0","0","","","Y","","2-84",56,45,2,84,"DAYS",5029],[420,"CDISCPILOT01","701","701","01-701-1111","2012-09-07","2012-09-16","Xanomeline Low Dose",54,81,">80",3,"WHITE",1,"F","Y","Y","N","Week 24",24,"RETRIEVAL",201,169,"2013-02-22","Recall Of Test Instructions","ACITM14",14,"0","0","0","","","Y","",">140",168,1,141,null,"DAYS",5044],[421,"CDISCPILOT01","701","701","01-701-1111","2012-09-07","2012-09-16","Xanomeline Low Dose",54,81,">80",3,"WHITE",1,"F","Y","Y","N","Baseline",0,"BASELINE",3,1,"2012-09-07","Adas-Cog(11) Subscore","ACTOT",15,"7","7","","","Y","Y","","<=1",1,0,null,1,"DAYS",5015],[422,"CDISCPILOT01","701","701","01-701-1111","2012-09-07","2012-09-16","Xanomeline Low Dose",54,81,">80",3,"WHITE",1,"F","Y","Y","N","Week 8",8,"WEEK 2",4,11,"2012-09-17","Adas-Cog(11) Subscore","ACTOT",15,"5","7","-2","-28.5714285714285","","Y","","2-84",56,45,2,84,"DAYS",5030],[423,"CDISCPILOT01","701","701","01-701-1111","2012-09-07","2012-09-16","Xanomeline Low Dose",54,81,">80",3,"WHITE",1,"F","Y","Y","N","Week 16",16,"WEEK 2",4,11,"2012-09-17","Adas-Cog(11) Subscore","ACTOT",15,"5","7","-2","-28.5714285714285","","Y","LOCF","85-140",112,101,85,140,"DAYS",5030],[424,"CDISCPILOT01","701","701","01-701-1111","2012-09-07","2012-09-16","Xanomeline Low Dose",54,81,">80",3,"WHITE",1,"F","Y","Y","N","Week 24",24,"RETRIEVAL",201,169,"2013-02-22","Adas-Cog(11) Subscore","ACTOT",15,"9","7","2","28.5714285714285","","Y","",">140",168,1,141,null,"DAYS",5045],[425,"CDISCPILOT01","701","701","01-701-1115","2012-11-30","2013-01-23","Xanomeline Low Dose",54,84,">80",3,"WHITE",1,"M","Y","Y","N","Baseline",0,"BASELINE",3,1,"2012-11-30","Word Recall Task","ACITM01",1,"6","6","","","Y","Y","","<=1",1,0,null,1,"DAYS",5001],[426,"CDISCPILOT01","701","701","01-701-1115","2012-11-30","2013-01-23","Xanomeline Low Dose",54,84,">80",3,"WHITE",1,"M","Y","Y","N","Week 8",8,"WEEK 8",8,55,"2013-01-23","Word Recall Task","ACITM01",1,"6","6","0","0","","Y","","2-84",56,1,2,84,"DAYS",5016],[427,"CDISCPILOT01","701","701","01-701-1115","2012-11-30","2013-01-23","Xanomeline Low Dose",54,84,">80",3,"WHITE",1,"M","Y","Y","N","Week 24",24,"RETRIEVAL",201,172,"2013-05-20","Word Recall Task","ACITM01",1,"6","6","0","0","","Y","",">140",168,4,141,null,"DAYS",5031],[428,"CDISCPILOT01","701","701","01-701-1115","2012-11-30","2013-01-23","Xanomeline Low Dose",54,84,">80",3,"WHITE",1,"M","Y","Y","N","Baseline",0,"BASELINE",3,1,"2012-11-30","Naming Objects And Fingers (Refer To 5 C","ACITM02",2,"0","0","","","Y","Y","","<=1",1,0,null,1,"DAYS",5002],[429,"CDISCPILOT01","701","701","01-701-1115","2012-11-30","2013-01-23","Xanomeline Low Dose",54,84,">80",3,"WHITE",1,"M","Y","Y","N","Week 8",8,"WEEK 8",8,55,"2013-01-23","Naming Objects And Fingers (Refer To 5 C","ACITM02",2,"1","0","1","","","Y","","2-84",56,1,2,84,"DAYS",5017],[430,"CDISCPILOT01","701","701","01-701-1115","2012-11-30","2013-01-23","Xanomeline Low Dose",54,84,">80",3,"WHITE",1,"M","Y","Y","N","Week 24",24,"RETRIEVAL",201,172,"2013-05-20","Naming Objects And Fingers (Refer To 5 C","ACITM02",2,"0","0","0","","","Y","",">140",168,4,141,null,"DAYS",5032],[431,"CDISCPILOT01","701","701","01-701-1115","2012-11-30","2013-01-23","Xanomeline Low Dose",54,84,">80",3,"WHITE",1,"M","Y","Y","N","Baseline",0,"BASELINE",3,1,"2012-11-30","Delayed Word Recall","ACITM03",3,"6","6","","","Y","Y","","<=1",1,0,null,1,"DAYS",5003],[432,"CDISCPILOT01","701","701","01-701-1115","2012-11-30","2013-01-23","Xanomeline Low Dose",54,84,">80",3,"WHITE",1,"M","Y","Y","N","Week 8",8,"WEEK 8",8,55,"2013-01-23","Delayed Word Recall","ACITM03",3,"6","6","0","0","","Y","","2-84",56,1,2,84,"DAYS",5018],[433,"CDISCPILOT01","701","701","01-701-1115","2012-11-30","2013-01-23","Xanomeline Low Dose",54,84,">80",3,"WHITE",1,"M","Y","Y","N","Week 24",24,"RETRIEVAL",201,172,"2013-05-20","Delayed Word Recall","ACITM03",3,"7","6","1","16.6666666666666","","Y","",">140",168,4,141,null,"DAYS",5033],[434,"CDISCPILOT01","701","701","01-701-1115","2012-11-30","2013-01-23","Xanomeline Low Dose",54,84,">80",3,"WHITE",1,"M","Y","Y","N","Baseline",0,"BASELINE",3,1,"2012-11-30","Commands","ACITM04",4,"0","0","","","Y","Y","","<=1",1,0,null,1,"DAYS",5004],[435,"CDISCPILOT01","701","701","01-701-1115","2012-11-30","2013-01-23","Xanomeline Low Dose",54,84,">80",3,"WHITE",1,"M","Y","Y","N","Week 8",8,"WEEK 8",8,55,"2013-01-23","Commands","ACITM04",4,"0","0","0","","","Y","","2-84",56,1,2,84,"DAYS",5019],[436,"CDISCPILOT01","701","701","01-701-1115","2012-11-30","2013-01-23","Xanomeline Low Dose",54,84,">80",3,"WHITE",1,"M","Y","Y","N","Week 24",24,"RETRIEVAL",201,172,"2013-05-20","Commands","ACITM04",4,"0","0","0","","","Y","",">140",168,4,141,null,"DAYS",5034],[437,"CDISCPILOT01","701","701","01-701-1115","2012-11-30","2013-01-23","Xanomeline Low Dose",54,84,">80",3,"WHITE",1,"M","Y","Y","N","Baseline",0,"BASELINE",3,1,"2012-11-30","Constructional Praxis","ACITM05",5,"1","1","","","Y","Y","","<=1",1,0,null,1,"DAYS",5005],[438,"CDISCPILOT01","701","701","01-701-1115","2012-11-30","2013-01-23","Xanomeline Low Dose",54,84,">80",3,"WHITE",1,"M","Y","Y","N","Week 8",8,"WEEK 8",8,55,"2013-01-23","Constructional Praxis","ACITM05",5,"1","1","0","0","","Y","","2-84",56,1,2,84,"DAYS",5020],[439,"CDISCPILOT01","701","701","01-701-1115","2012-11-30","2013-01-23","Xanomeline Low Dose",54,84,">80",3,"WHITE",1,"M","Y","Y","N","Week 24",24,"RETRIEVAL",201,172,"2013-05-20","Constructional Praxis","ACITM05",5,"1","1","0","0","","Y","",">140",168,4,141,null,"DAYS",5035],[440,"CDISCPILOT01","701","701","01-701-1115","2012-11-30","2013-01-23","Xanomeline Low Dose",54,84,">80",3,"WHITE",1,"M","Y","Y","N","Baseline",0,"BASELINE",3,1,"2012-11-30","Ideational Praxis","ACITM06",6,"1","1","","","Y","Y","","<=1",1,0,null,1,"DAYS",5006],[441,"CDISCPILOT01","701","701","01-701-1115","2012-11-30","2013-01-23","Xanomeline Low Dose",54,84,">80",3,"WHITE",1,"M","Y","Y","N","Week 8",8,"WEEK 8",8,55,"2013-01-23","Ideational Praxis","ACITM06",6,"0","1","-1","-100","","Y","","2-84",56,1,2,84,"DAYS",5021],[442,"CDISCPILOT01","701","701","01-701-1115","2012-11-30","2013-01-23","Xanomeline Low Dose",54,84,">80",3,"WHITE",1,"M","Y","Y","N","Week 24",24,"RETRIEVAL",201,172,"2013-05-20","Ideational Praxis","ACITM06",6,"0","1","-1","-100","","Y","",">140",168,4,141,null,"DAYS",5036],[443,"CDISCPILOT01","701","701","01-701-1115","2012-11-30","2013-01-23","Xanomeline Low Dose",54,84,">80",3,"WHITE",1,"M","Y","Y","N","Baseline",0,"BASELINE",3,1,"2012-11-30","Orientation","ACITM07",7,"1","1","","","Y","Y","","<=1",1,0,null,1,"DAYS",5007],[444,"CDISCPILOT01","701","701","01-701-1115","2012-11-30","2013-01-23","Xanomeline Low Dose",54,84,">80",3,"WHITE",1,"M","Y","Y","N","Week 8",8,"WEEK 8",8,55,"2013-01-23","Orientation","ACITM07",7,"1","1","0","0","","Y","","2-84",56,1,2,84,"DAYS",5022],[445,"CDISCPILOT01","701","701","01-701-1115","2012-11-30","2013-01-23","Xanomeline Low Dose",54,84,">80",3,"WHITE",1,"M","Y","Y","N","Week 24",24,"RETRIEVAL",201,172,"2013-05-20","Orientation","ACITM07",7,"2","1","1","100","","Y","",">140",168,4,141,null,"DAYS",5037],[446,"CDISCPILOT01","701","701","01-701-1115","2012-11-30","2013-01-23","Xanomeline Low Dose",54,84,">80",3,"WHITE",1,"M","Y","Y","N","Baseline",0,"BASELINE",3,1,"2012-11-30","Word Recognition","ACITM08",8,"1","1","","","Y","Y","","<=1",1,0,null,1,"DAYS",5008],[447,"CDISCPILOT01","701","701","01-701-1115","2012-11-30","2013-01-23","Xanomeline Low Dose",54,84,">80",3,"WHITE",1,"M","Y","Y","N","Week 8",8,"WEEK 8",8,55,"2013-01-23","Word Recognition","ACITM08",8,"5","1","4","400","","Y","","2-84",56,1,2,84,"DAYS",5023],[448,"CDISCPILOT01","701","701","01-701-1115","2012-11-30","2013-01-23","Xanomeline Low Dose",54,84,">80",3,"WHITE",1,"M","Y","Y","N","Week 24",24,"RETRIEVAL",201,172,"2013-05-20","Word Recognition","ACITM08",8,"1","1","0","0","","Y","",">140",168,4,141,null,"DAYS",5038],[449,"CDISCPILOT01","701","701","01-701-1115","2012-11-30","2013-01-23","Xanomeline Low Dose",54,84,">80",3,"WHITE",1,"M","Y","Y","N","Baseline",0,"BASELINE",3,1,"2012-11-30","Attention/Visual Search Task","ACITM09",9,"26","26","","","Y","Y","","<=1",1,0,null,1,"DAYS",5009],[450,"CDISCPILOT01","701","701","01-701-1115","2012-11-30","2013-01-23","Xanomeline Low Dose",54,84,">80",3,"WHITE",1,"M","Y","Y","N","Week 8",8,"WEEK 8",8,55,"2013-01-23","Attention/Visual Search Task","ACITM09",9,"23","26","-3","-11.5384615384615","","Y","","2-84",56,1,2,84,"DAYS",5024],[451,"CDISCPILOT01","701","701","01-701-1115","2012-11-30","2013-01-23","Xanomeline Low Dose",54,84,">80",3,"WHITE",1,"M","Y","Y","N","Week 24",24,"RETRIEVAL",201,172,"2013-05-20","Attention/Visual Search Task","ACITM09",9,"24","26","-2","-7.69230769230769","","Y","",">140",168,4,141,null,"DAYS",5039],[452,"CDISCPILOT01","701","701","01-701-1115","2012-11-30","2013-01-23","Xanomeline Low Dose",54,84,">80",3,"WHITE",1,"M","Y","Y","N","Baseline",0,"BASELINE",3,1,"2012-11-30","Maze Solution","ACITM10",10,"3","3","","","Y","Y","","<=1",1,0,null,1,"DAYS",5010],[453,"CDISCPILOT01","701","701","01-701-1115","2012-11-30","2013-01-23","Xanomeline Low Dose",54,84,">80",3,"WHITE",1,"M","Y","Y","N","Week 8",8,"WEEK 8",8,55,"2013-01-23","Maze Solution","ACITM10",10,"6","3","3","100","","Y","","2-84",56,1,2,84,"DAYS",5025],[454,"CDISCPILOT01","701","701","01-701-1115","2012-11-30","2013-01-23","Xanomeline Low Dose",54,84,">80",3,"WHITE",1,"M","Y","Y","N","Week 24",24,"RETRIEVAL",201,172,"2013-05-20","Maze Solution","ACITM10",10,"7","3","4","133.333333333333","","Y","",">140",168,4,141,null,"DAYS",5040],[455,"CDISCPILOT01","701","701","01-701-1115","2012-11-30","2013-01-23","Xanomeline Low Dose",54,84,">80",3,"WHITE",1,"M","Y","Y","N","Baseline",0,"BASELINE",3,1,"2012-11-30","Spoken Language Ability","ACITM11",11,"0","0","","","Y","Y","","<=1",1,0,null,1,"DAYS",5011],[456,"CDISCPILOT01","701","701","01-701-1115","2012-11-30","2013-01-23","Xanomeline Low Dose",54,84,">80",3,"WHITE",1,"M","Y","Y","N","Week 8",8,"WEEK 8",8,55,"2013-01-23","Spoken Language Ability","ACITM11",11,"0","0","0","","","Y","","2-84",56,1,2,84,"DAYS",5026],[457,"CDISCPILOT01","701","701","01-701-1115","2012-11-30","2013-01-23","Xanomeline Low Dose",54,84,">80",3,"WHITE",1,"M","Y","Y","N","Week 24",24,"RETRIEVAL",201,172,"2013-05-20","Spoken Language Ability","ACITM11",11,"0","0","0","","","Y","",">140",168,4,141,null,"DAYS",5041],[458,"CDISCPILOT01","701","701","01-701-1115","2012-11-30","2013-01-23","Xanomeline Low Dose",54,84,">80",3,"WHITE",1,"M","Y","Y","N","Baseline",0,"BASELINE",3,1,"2012-11-30","Comprehension Of Spoken Language","ACITM12",12,"0","0","","","Y","Y","","<=1",1,0,null,1,"DAYS",5012],[459,"CDISCPILOT01","701","701","01-701-1115","2012-11-30","2013-01-23","Xanomeline Low Dose",54,84,">80",3,"WHITE",1,"M","Y","Y","N","Week 8",8,"WEEK 8",8,55,"2013-01-23","Comprehension Of Spoken Language","ACITM12",12,"0","0","0","","","Y","","2-84",56,1,2,84,"DAYS",5027],[460,"CDISCPILOT01","701","701","01-701-1115","2012-11-30","2013-01-23","Xanomeline Low Dose",54,84,">80",3,"WHITE",1,"M","Y","Y","N","Week 24",24,"RETRIEVAL",201,172,"2013-05-20","Comprehension Of Spoken Language","ACITM12",12,"0","0","0","","","Y","",">140",168,4,141,null,"DAYS",5042],[461,"CDISCPILOT01","701","701","01-701-1115","2012-11-30","2013-01-23","Xanomeline Low Dose",54,84,">80",3,"WHITE",1,"M","Y","Y","N","Baseline",0,"BASELINE",3,1,"2012-11-30","Word Finding Difficulty In Spontaneous S","ACITM13",13,"0","0","","","Y","Y","","<=1",1,0,null,1,"DAYS",5013],[462,"CDISCPILOT01","701","701","01-701-1115","2012-11-30","2013-01-23","Xanomeline Low Dose",54,84,">80",3,"WHITE",1,"M","Y","Y","N","Week 8",8,"WEEK 8",8,55,"2013-01-23","Word Finding Difficulty In Spontaneous S","ACITM13",13,"0","0","0","","","Y","","2-84",56,1,2,84,"DAYS",5028],[463,"CDISCPILOT01","701","701","01-701-1115","2012-11-30","2013-01-23","Xanomeline Low Dose",54,84,">80",3,"WHITE",1,"M","Y","Y","N","Week 24",24,"RETRIEVAL",201,172,"2013-05-20","Word Finding Difficulty In Spontaneous S","ACITM13",13,"0","0","0","","","Y","",">140",168,4,141,null,"DAYS",5043],[464,"CDISCPILOT01","701","701","01-701-1115","2012-11-30","2013-01-23","Xanomeline Low Dose",54,84,">80",3,"WHITE",1,"M","Y","Y","N","Baseline",0,"BASELINE",3,1,"2012-11-30","Recall Of Test Instructions","ACITM14",14,"0","0","","","Y","Y","","<=1",1,0,null,1,"DAYS",5014],[465,"CDISCPILOT01","701","701","01-701-1115","2012-11-30","2013-01-23","Xanomeline Low Dose",54,84,">80",3,"WHITE",1,"M","Y","Y","N","Week 8",8,"WEEK 8",8,55,"2013-01-23","Recall Of Test Instructions","ACITM14",14,"0","0","0","","","Y","","2-84",56,1,2,84,"DAYS",5029],[466,"CDISCPILOT01","701","701","01-701-1115","2012-11-30","2013-01-23","Xanomeline Low Dose",54,84,">80",3,"WHITE",1,"M","Y","Y","N","Week 24",24,"RETRIEVAL",201,172,"2013-05-20","Recall Of Test Instructions","ACITM14",14,"0","0","0","","","Y","",">140",168,4,141,null,"DAYS",5044],[467,"CDISCPILOT01","701","701","01-701-1115","2012-11-30","2013-01-23","Xanomeline Low Dose",54,84,">80",3,"WHITE",1,"M","Y","Y","N","Baseline",0,"BASELINE",3,1,"2012-11-30","Adas-Cog(11) Subscore","ACTOT",15,"10","10","","","Y","Y","","<=1",1,0,null,1,"DAYS",5015],[468,"CDISCPILOT01","701","701","01-701-1115","2012-11-30","2013-01-23","Xanomeline Low Dose",54,84,">80",3,"WHITE",1,"M","Y","Y","N","Week 8",8,"WEEK 8",8,55,"2013-01-23","Adas-Cog(11) Subscore","ACTOT",15,"14","10","4","40","","Y","","2-84",56,1,2,84,"DAYS",5030],[469,"CDISCPILOT01","701","701","01-701-1115","2012-11-30","2013-01-23","Xanomeline Low Dose",54,84,">80",3,"WHITE",1,"M","Y","Y","N","Week 16",16,"WEEK 8",8,55,"2013-01-23","Adas-Cog(11) Subscore","ACTOT",15,"14","10","4","40","","Y","LOCF","85-140",112,57,85,140,"DAYS",5030],[470,"CDISCPILOT01","701","701","01-701-1115","2012-11-30","2013-01-23","Xanomeline Low Dose",54,84,">80",3,"WHITE",1,"M","Y","Y","N","Week 24",24,"RETRIEVAL",201,172,"2013-05-20","Adas-Cog(11) Subscore","ACTOT",15,"10","10","0","0","","Y","",">140",168,4,141,null,"DAYS",5045],[471,"CDISCPILOT01","701","701","01-701-1118","2014-03-12","2014-09-09","Placebo",0,52,"<65",1,"WHITE",1,"M","Y","Y","Y","Baseline",0,"BASELINE",3,1,"2014-03-12","Word Recall Task","ACITM01",1,"5","5","","","Y","Y","","<=1",1,0,null,1,"DAYS",5001],[472,"CDISCPILOT01","701","701","01-701-1118","2014-03-12","2014-09-09","Placebo",0,52,"<65",1,"WHITE",1,"M","Y","Y","Y","Week 8",8,"WEEK 8",8,58,"2014-05-08","Word Recall Task","ACITM01",1,"5","5","0","0","","Y","","2-84",56,2,2,84,"DAYS",5016],[473,"CDISCPILOT01","701","701","01-701-1118","2014-03-12","2014-09-09","Placebo",0,52,"<65",1,"WHITE",1,"M","Y","Y","Y","Week 16",16,"WEEK 16",10,113,"2014-07-02","Word Recall Task","ACITM01",1,"4","5","-1","-20","","Y","","85-140",112,1,85,140,"DAYS",5031],[474,"CDISCPILOT01","701","701","01-701-1118","2014-03-12","2014-09-09","Placebo",0,52,"<65",1,"WHITE",1,"M","Y","Y","Y","Week 24",24,"WEEK 24",12,169,"2014-08-27","Word Recall Task","ACITM01",1,"5","5","0","0","","Y","",">140",168,1,141,null,"DAYS",5046],[475,"CDISCPILOT01","701","701","01-701-1118","2014-03-12","2014-09-09","Placebo",0,52,"<65",1,"WHITE",1,"M","Y","Y","Y","Baseline",0,"BASELINE",3,1,"2014-03-12","Naming Objects And Fingers (Refer To 5 C","ACITM02",2,"1","1","","","Y","Y","","<=1",1,0,null,1,"DAYS",5002],[476,"CDISCPILOT01","701","701","01-701-1118","2014-03-12","2014-09-09","Placebo",0,52,"<65",1,"WHITE",1,"M","Y","Y","Y","Week 8",8,"WEEK 8",8,58,"2014-05-08","Naming Objects And Fingers (Refer To 5 C","ACITM02",2,"0","1","-1","-100","","Y","","2-84",56,2,2,84,"DAYS",5017],[477,"CDISCPILOT01","701","701","01-701-1118","2014-03-12","2014-09-09","Placebo",0,52,"<65",1,"WHITE",1,"M","Y","Y","Y","Week 16",16,"WEEK 16",10,113,"2014-07-02","Naming Objects And Fingers (Refer To 5 C","ACITM02",2,"0","1","-1","-100","","Y","","85-140",112,1,85,140,"DAYS",5032],[478,"CDISCPILOT01","701","701","01-701-1118","2014-03-12","2014-09-09","Placebo",0,52,"<65",1,"WHITE",1,"M","Y","Y","Y","Week 24",24,"WEEK 24",12,169,"2014-08-27","Naming Objects And Fingers (Refer To 5 C","ACITM02",2,"0","1","-1","-100","","Y","",">140",168,1,141,null,"DAYS",5047],[479,"CDISCPILOT01","701","701","01-701-1118","2014-03-12","2014-09-09","Placebo",0,52,"<65",1,"WHITE",1,"M","Y","Y","Y","Baseline",0,"BASELINE",3,1,"2014-03-12","Delayed Word Recall","ACITM03",3,"10","10","","","Y","Y","","<=1",1,0,null,1,"DAYS",5003],[480,"CDISCPILOT01","701","701","01-701-1118","2014-03-12","2014-09-09","Placebo",0,52,"<65",1,"WHITE",1,"M","Y","Y","Y","Week 8",8,"WEEK 8",8,58,"2014-05-08","Delayed Word Recall","ACITM03",3,"7","10","-3","-30","","Y","","2-84",56,2,2,84,"DAYS",5018],[481,"CDISCPILOT01","701","701","01-701-1118","2014-03-12","2014-09-09","Placebo",0,52,"<65",1,"WHITE",1,"M","Y","Y","Y","Week 16",16,"WEEK 16",10,113,"2014-07-02","Delayed Word Recall","ACITM03",3,"6","10","-4","-40","","Y","","85-140",112,1,85,140,"DAYS",5033],[482,"CDISCPILOT01","701","701","01-701-1118","2014-03-12","2014-09-09","Placebo",0,52,"<65",1,"WHITE",1,"M","Y","Y","Y","Week 24",24,"WEEK 24",12,169,"2014-08-27","Delayed Word Recall","ACITM03",3,"8","10","-2","-20","","Y","",">140",168,1,141,null,"DAYS",5048],[483,"CDISCPILOT01","701","701","01-701-1118","2014-03-12","2014-09-09","Placebo",0,52,"<65",1,"WHITE",1,"M","Y","Y","Y","Baseline",0,"BASELINE",3,1,"2014-03-12","Commands","ACITM04",4,"0","0","","","Y","Y","","<=1",1,0,null,1,"DAYS",5004],[484,"CDISCPILOT01","701","701","01-701-1118","2014-03-12","2014-09-09","Placebo",0,52,"<65",1,"WHITE",1,"M","Y","Y","Y","Week 8",8,"WEEK 8",8,58,"2014-05-08","Commands","ACITM04",4,"0","0","0","","","Y","","2-84",56,2,2,84,"DAYS",5019],[485,"CDISCPILOT01","701","701","01-701-1118","2014-03-12","2014-09-09","Placebo",0,52,"<65",1,"WHITE",1,"M","Y","Y","Y","Week 16",16,"WEEK 16",10,113,"2014-07-02","Commands","ACITM04",4,"0","0","0","","","Y","","85-140",112,1,85,140,"DAYS",5034],[486,"CDISCPILOT01","701","701","01-701-1118","2014-03-12","2014-09-09","Placebo",0,52,"<65",1,"WHITE",1,"M","Y","Y","Y","Week 24",24,"WEEK 24",12,169,"2014-08-27","Commands","ACITM04",4,"0","0","0","","","Y","",">140",168,1,141,null,"DAYS",5049],[487,"CDISCPILOT01","701","701","01-701-1118","2014-03-12","2014-09-09","Placebo",0,52,"<65",1,"WHITE",1,"M","Y","Y","Y","Baseline",0,"BASELINE",3,1,"2014-03-12","Constructional Praxis","ACITM05",5,"3","3","","","Y","Y","","<=1",1,0,null,1,"DAYS",5005],[488,"CDISCPILOT01","701","701","01-701-1118","2014-03-12","2014-09-09","Placebo",0,52,"<65",1,"WHITE",1,"M","Y","Y","Y","Week 8",8,"WEEK 8",8,58,"2014-05-08","Constructional Praxis","ACITM05",5,"3","3","0","0","","Y","","2-84",56,2,2,84,"DAYS",5020],[489,"CDISCPILOT01","701","701","01-701-1118","2014-03-12","2014-09-09","Placebo",0,52,"<65",1,"WHITE",1,"M","Y","Y","Y","Week 16",16,"WEEK 16",10,113,"2014-07-02","Constructional Praxis","ACITM05",5,"2","3","-1","-33.3333333333333","","Y","","85-140",112,1,85,140,"DAYS",5035],[490,"CDISCPILOT01","701","701","01-701-1118","2014-03-12","2014-09-09","Placebo",0,52,"<65",1,"WHITE",1,"M","Y","Y","Y","Week 24",24,"WEEK 24",12,169,"2014-08-27","Constructional Praxis","ACITM05",5,"2","3","-1","-33.3333333333333","","Y","",">140",168,1,141,null,"DAYS",5050],[491,"CDISCPILOT01","701","701","01-701-1118","2014-03-12","2014-09-09","Placebo",0,52,"<65",1,"WHITE",1,"M","Y","Y","Y","Baseline",0,"BASELINE",3,1,"2014-03-12","Ideational Praxis","ACITM06",6,"1","1","","","Y","Y","","<=1",1,0,null,1,"DAYS",5006],[492,"CDISCPILOT01","701","701","01-701-1118","2014-03-12","2014-09-09","Placebo",0,52,"<65",1,"WHITE",1,"M","Y","Y","Y","Week 8",8,"WEEK 8",8,58,"2014-05-08","Ideational Praxis","ACITM06",6,"0","1","-1","-100","","Y","","2-84",56,2,2,84,"DAYS",5021],[493,"CDISCPILOT01","701","701","01-701-1118","2014-03-12","2014-09-09","Placebo",0,52,"<65",1,"WHITE",1,"M","Y","Y","Y","Week 16",16,"WEEK 16",10,113,"2014-07-02","Ideational Praxis","ACITM06",6,"0","1","-1","-100","","Y","","85-140",112,1,85,140,"DAYS",5036],[494,"CDISCPILOT01","701","701","01-701-1118","2014-03-12","2014-09-09","Placebo",0,52,"<65",1,"WHITE",1,"M","Y","Y","Y","Week 24",24,"WEEK 24",12,169,"2014-08-27","Ideational Praxis","ACITM06",6,"0","1","-1","-100","","Y","",">140",168,1,141,null,"DAYS",5051],[495,"CDISCPILOT01","701","701","01-701-1118","2014-03-12","2014-09-09","Placebo",0,52,"<65",1,"WHITE",1,"M","Y","Y","Y","Baseline",0,"BASELINE",3,1,"2014-03-12","Orientation","ACITM07",7,"4","4","","","Y","Y","","<=1",1,0,null,1,"DAYS",5007],[496,"CDISCPILOT01","701","701","01-701-1118","2014-03-12","2014-09-09","Placebo",0,52,"<65",1,"WHITE",1,"M","Y","Y","Y","Week 8",8,"WEEK 8",8,58,"2014-05-08","Orientation","ACITM07",7,"1","4","-3","-75","","Y","","2-84",56,2,2,84,"DAYS",5022],[497,"CDISCPILOT01","701","701","01-701-1118","2014-03-12","2014-09-09","Placebo",0,52,"<65",1,"WHITE",1,"M","Y","Y","Y","Week 16",16,"WEEK 16",10,113,"2014-07-02","Orientation","ACITM07",7,"1","4","-3","-75","","Y","","85-140",112,1,85,140,"DAYS",5037],[498,"CDISCPILOT01","701","701","01-701-1118","2014-03-12","2014-09-09","Placebo",0,52,"<65",1,"WHITE",1,"M","Y","Y","Y","Week 24",24,"WEEK 24",12,169,"2014-08-27","Orientation","ACITM07",7,"1","4","-3","-75","","Y","",">140",168,1,141,null,"DAYS",5052],[499,"CDISCPILOT01","701","701","01-701-1118","2014-03-12","2014-09-09","Placebo",0,52,"<65",1,"WHITE",1,"M","Y","Y","Y","Baseline",0,"BASELINE",3,1,"2014-03-12","Word Recognition","ACITM08",8,"10","10","","","Y","Y","","<=1",1,0,null,1,"DAYS",5008],[500,"CDISCPILOT01","701","701","01-701-1118","2014-03-12","2014-09-09","Placebo",0,52,"<65",1,"WHITE",1,"M","Y","Y","Y","Week 8",8,"WEEK 8",8,58,"2014-05-08","Word Recognition","ACITM08",8,"10","10","0","0","","Y","","2-84",56,2,2,84,"DAYS",5023],[501,"CDISCPILOT01","701","701","01-701-1118","2014-03-12","2014-09-09","Placebo",0,52,"<65",1,"WHITE",1,"M","Y","Y","Y","Week 16",16,"WEEK 16",10,113,"2014-07-02","Word Recognition","ACITM08",8,"10","10","0","0","","Y","","85-140",112,1,85,140,"DAYS",5038],[502,"CDISCPILOT01","701","701","01-701-1118","2014-03-12","2014-09-09","Placebo",0,52,"<65",1,"WHITE",1,"M","Y","Y","Y","Week 24",24,"WEEK 24",12,169,"2014-08-27","Word Recognition","ACITM08",8,"7","10","-3","-30","","Y","",">140",168,1,141,null,"DAYS",5053],[503,"CDISCPILOT01","701","701","01-701-1118","2014-03-12","2014-09-09","Placebo",0,52,"<65",1,"WHITE",1,"M","Y","Y","Y","Baseline",0,"BASELINE",3,1,"2014-03-12","Attention/Visual Search Task","ACITM09",9,"12","12","","","Y","Y","","<=1",1,0,null,1,"DAYS",5009],[504,"CDISCPILOT01","701","701","01-701-1118","2014-03-12","2014-09-09","Placebo",0,52,"<65",1,"WHITE",1,"M","Y","Y","Y","Week 8",8,"WEEK 8",8,58,"2014-05-08","Attention/Visual Search Task","ACITM09",9,"10","12","-2","-16.6666666666666","","Y","","2-84",56,2,2,84,"DAYS",5024],[505,"CDISCPILOT01","701","701","01-701-1118","2014-03-12","2014-09-09","Placebo",0,52,"<65",1,"WHITE",1,"M","Y","Y","Y","Week 16",16,"WEEK 16",10,113,"2014-07-02","Attention/Visual Search Task","ACITM09",9,"11","12","-1","-8.33333333333333","","Y","","85-140",112,1,85,140,"DAYS",5039],[506,"CDISCPILOT01","701","701","01-701-1118","2014-03-12","2014-09-09","Placebo",0,52,"<65",1,"WHITE",1,"M","Y","Y","Y","Week 24",24,"WEEK 24",12,169,"2014-08-27","Attention/Visual Search Task","ACITM09",9,"18","12","6","50","","Y","",">140",168,1,141,null,"DAYS",5054],[507,"CDISCPILOT01","701","701","01-701-1118","2014-03-12","2014-09-09","Placebo",0,52,"<65",1,"WHITE",1,"M","Y","Y","Y","Baseline",0,"BASELINE",3,1,"2014-03-12","Maze Solution","ACITM10",10,"6","6","","","Y","Y","","<=1",1,0,null,1,"DAYS",5010],[508,"CDISCPILOT01","701","701","01-701-1118","2014-03-12","2014-09-09","Placebo",0,52,"<65",1,"WHITE",1,"M","Y","Y","Y","Week 8",8,"WEEK 8",8,58,"2014-05-08","Maze Solution","ACITM10",10,"7","6","1","16.6666666666666","","Y","","2-84",56,2,2,84,"DAYS",5025],[509,"CDISCPILOT01","701","701","01-701-1118","2014-03-12","2014-09-09","Placebo",0,52,"<65",1,"WHITE",1,"M","Y","Y","Y","Week 16",16,"WEEK 16",10,113,"2014-07-02","Maze Solution","ACITM10",10,"9","6","3","50","","Y","","85-140",112,1,85,140,"DAYS",5040],[510,"CDISCPILOT01","701","701","01-701-1118","2014-03-12","2014-09-09","Placebo",0,52,"<65",1,"WHITE",1,"M","Y","Y","Y","Week 24",24,"WEEK 24",12,169,"2014-08-27","Maze Solution","ACITM10",10,"7","6","1","16.6666666666666","","Y","",">140",168,1,141,null,"DAYS",5055],[511,"CDISCPILOT01","701","701","01-701-1118","2014-03-12","2014-09-09","Placebo",0,52,"<65",1,"WHITE",1,"M","Y","Y","Y","Baseline",0,"BASELINE",3,1,"2014-03-12","Spoken Language Ability","ACITM11",11,"0","0","","","Y","Y","","<=1",1,0,null,1,"DAYS",5011],[512,"CDISCPILOT01","701","701","01-701-1118","2014-03-12","2014-09-09","Placebo",0,52,"<65",1,"WHITE",1,"M","Y","Y","Y","Week 8",8,"WEEK 8",8,58,"2014-05-08","Spoken Language Ability","ACITM11",11,"0","0","0","","","Y","","2-84",56,2,2,84,"DAYS",5026],[513,"CDISCPILOT01","701","701","01-701-1118","2014-03-12","2014-09-09","Placebo",0,52,"<65",1,"WHITE",1,"M","Y","Y","Y","Week 16",16,"WEEK 16",10,113,"2014-07-02","Spoken Language Ability","ACITM11",11,"0","0","0","","","Y","","85-140",112,1,85,140,"DAYS",5041],[514,"CDISCPILOT01","701","701","01-701-1118","2014-03-12","2014-09-09","Placebo",0,52,"<65",1,"WHITE",1,"M","Y","Y","Y","Week 24",24,"WEEK 24",12,169,"2014-08-27","Spoken Language Ability","ACITM11",11,"0","0","0","","","Y","",">140",168,1,141,null,"DAYS",5056],[515,"CDISCPILOT01","701","701","01-701-1118","2014-03-12","2014-09-09","Placebo",0,52,"<65",1,"WHITE",1,"M","Y","Y","Y","Baseline",0,"BASELINE",3,1,"2014-03-12","Comprehension Of Spoken Language","ACITM12",12,"0","0","","","Y","Y","","<=1",1,0,null,1,"DAYS",5012],[516,"CDISCPILOT01","701","701","01-701-1118","2014-03-12","2014-09-09","Placebo",0,52,"<65",1,"WHITE",1,"M","Y","Y","Y","Week 8",8,"WEEK 8",8,58,"2014-05-08","Comprehension Of Spoken Language","ACITM12",12,"0","0","0","","","Y","","2-84",56,2,2,84,"DAYS",5027],[517,"CDISCPILOT01","701","701","01-701-1118","2014-03-12","2014-09-09","Placebo",0,52,"<65",1,"WHITE",1,"M","Y","Y","Y","Week 16",16,"WEEK 16",10,113,"2014-07-02","Comprehension Of Spoken Language","ACITM12",12,"0","0","0","","","Y","","85-140",112,1,85,140,"DAYS",5042],[518,"CDISCPILOT01","701","701","01-701-1118","2014-03-12","2014-09-09","Placebo",0,52,"<65",1,"WHITE",1,"M","Y","Y","Y","Week 24",24,"WEEK 24",12,169,"2014-08-27","Comprehension Of Spoken Language","ACITM12",12,"0","0","0","","","Y","",">140",168,1,141,null,"DAYS",5057],[519,"CDISCPILOT01","701","701","01-701-1118","2014-03-12","2014-09-09","Placebo",0,52,"<65",1,"WHITE",1,"M","Y","Y","Y","Baseline",0,"BASELINE",3,1,"2014-03-12","Word Finding Difficulty In Spontaneous S","ACITM13",13,"1","1","","","Y","Y","","<=1",1,0,null,1,"DAYS",5013],[520,"CDISCPILOT01","701","701","01-701-1118","2014-03-12","2014-09-09","Placebo",0,52,"<65",1,"WHITE",1,"M","Y","Y","Y","Week 8",8,"WEEK 8",8,58,"2014-05-08","Word Finding Difficulty In Spontaneous S","ACITM13",13,"0","1","-1","-100","","Y","","2-84",56,2,2,84,"DAYS",5028],[521,"CDISCPILOT01","701","701","01-701-1118","2014-03-12","2014-09-09","Placebo",0,52,"<65",1,"WHITE",1,"M","Y","Y","Y","Week 16",16,"WEEK 16",10,113,"2014-07-02","Word Finding Difficulty In Spontaneous S","ACITM13",13,"0","1","-1","-100","","Y","","85-140",112,1,85,140,"DAYS",5043],[522,"CDISCPILOT01","701","701","01-701-1118","2014-03-12","2014-09-09","Placebo",0,52,"<65",1,"WHITE",1,"M","Y","Y","Y","Week 24",24,"WEEK 24",12,169,"2014-08-27","Word Finding Difficulty In Spontaneous S","ACITM13",13,"0","1","-1","-100","","Y","",">140",168,1,141,null,"DAYS",5058],[523,"CDISCPILOT01","701","701","01-701-1118","2014-03-12","2014-09-09","Placebo",0,52,"<65",1,"WHITE",1,"M","Y","Y","Y","Baseline",0,"BASELINE",3,1,"2014-03-12","Recall Of Test Instructions","ACITM14",14,"1","1","","","Y","Y","","<=1",1,0,null,1,"DAYS",5014],[524,"CDISCPILOT01","701","701","01-701-1118","2014-03-12","2014-09-09","Placebo",0,52,"<65",1,"WHITE",1,"M","Y","Y","Y","Week 8",8,"WEEK 8",8,58,"2014-05-08","Recall Of Test Instructions","ACITM14",14,"0","1","-1","-100","","Y","","2-84",56,2,2,84,"DAYS",5029],[525,"CDISCPILOT01","701","701","01-701-1118","2014-03-12","2014-09-09","Placebo",0,52,"<65",1,"WHITE",1,"M","Y","Y","Y","Week 16",16,"WEEK 16",10,113,"2014-07-02","Recall Of Test Instructions","ACITM14",14,"0","1","-1","-100","","Y","","85-140",112,1,85,140,"DAYS",5044],[526,"CDISCPILOT01","701","701","01-701-1118","2014-03-12","2014-09-09","Placebo",0,52,"<65",1,"WHITE",1,"M","Y","Y","Y","Week 24",24,"WEEK 24",12,169,"2014-08-27","Recall Of Test Instructions","ACITM14",14,"0","1","-1","-100","","Y","",">140",168,1,141,null,"DAYS",5059],[527,"CDISCPILOT01","701","701","01-701-1118","2014-03-12","2014-09-09","Placebo",0,52,"<65",1,"WHITE",1,"M","Y","Y","Y","Baseline",0,"BASELINE",3,1,"2014-03-12","Adas-Cog(11) Subscore","ACTOT",15,"26","26","","","Y","Y","","<=1",1,0,null,1,"DAYS",5015],[528,"CDISCPILOT01","701","701","01-701-1118","2014-03-12","2014-09-09","Placebo",0,52,"<65",1,"WHITE",1,"M","Y","Y","Y","Week 8",8,"WEEK 8",8,58,"2014-05-08","Adas-Cog(11) Subscore","ACTOT",15,"19","26","-7","-26.9230769230769","","Y","","2-84",56,2,2,84,"DAYS",5030],[529,"CDISCPILOT01","701","701","01-701-1118","2014-03-12","2014-09-09","Placebo",0,52,"<65",1,"WHITE",1,"M","Y","Y","Y","Week 16",16,"WEEK 16",10,113,"2014-07-02","Adas-Cog(11) Subscore","ACTOT",15,"17","26","-9","-34.6153846153846","","Y","","85-140",112,1,85,140,"DAYS",5045],[530,"CDISCPILOT01","701","701","01-701-1118","2014-03-12","2014-09-09","Placebo",0,52,"<65",1,"WHITE",1,"M","Y","Y","Y","Week 24",24,"WEEK 24",12,169,"2014-08-27","Adas-Cog(11) Subscore","ACTOT",15,"15","26","-11","-42.3076923076923","","Y","",">140",168,1,141,null,"DAYS",5060],[531,"CDISCPILOT01","701","701","01-701-1130","2014-02-15","2014-08-16","Placebo",0,84,">80",3,"WHITE",1,"M","Y","Y","Y","Baseline",0,"BASELINE",3,1,"2014-02-15","Word Recall Task","ACITM01",1,"4","4","","","Y","Y","","<=1",1,0,null,1,"DAYS",5001],[532,"CDISCPILOT01","701","701","01-701-1130","2014-02-15","2014-08-16","Placebo",0,84,">80",3,"WHITE",1,"M","Y","Y","Y","Week 8",8,"WEEK 8",8,57,"2014-04-12","Word Recall Task","ACITM01",1,"4","4","0","0","","Y","","2-84",56,1,2,84,"DAYS",5016],[533,"CDISCPILOT01","701","701","01-701-1130","2014-02-15","2014-08-16","Placebo",0,84,">80",3,"WHITE",1,"M","Y","Y","Y","Week 16",16,"WEEK 16",10,113,"2014-06-07","Word Recall Task","ACITM01",1,"5","4","1","25","","Y","","85-140",112,1,85,140,"DAYS",5031],[534,"CDISCPILOT01","701","701","01-701-1130","2014-02-15","2014-08-16","Placebo",0,84,">80",3,"WHITE",1,"M","Y","Y","Y","Week 24",24,"WEEK 24",12,169,"2014-08-02","Word Recall Task","ACITM01",1,"4","4","0","0","","Y","",">140",168,1,141,null,"DAYS",5046],[535,"CDISCPILOT01","701","701","01-701-1130","2014-02-15","2014-08-16","Placebo",0,84,">80",3,"WHITE",1,"M","Y","Y","Y","Baseline",0,"BASELINE",3,1,"2014-02-15","Naming Objects And Fingers (Refer To 5 C","ACITM02",2,"0","0","","","Y","Y","","<=1",1,0,null,1,"DAYS",5002],[536,"CDISCPILOT01","701","701","01-701-1130","2014-02-15","2014-08-16","Placebo",0,84,">80",3,"WHITE",1,"M","Y","Y","Y","Week 8",8,"WEEK 8",8,57,"2014-04-12","Naming Objects And Fingers (Refer To 5 C","ACITM02",2,"0","0","0","","","Y","","2-84",56,1,2,84,"DAYS",5017],[537,"CDISCPILOT01","701","701","01-701-1130","2014-02-15","2014-08-16","Placebo",0,84,">80",3,"WHITE",1,"M","Y","Y","Y","Week 16",16,"WEEK 16",10,113,"2014-06-07","Naming Objects And Fingers (Refer To 5 C","ACITM02",2,"0","0","0","","","Y","","85-140",112,1,85,140,"DAYS",5032],[538,"CDISCPILOT01","701","701","01-701-1130","2014-02-15","2014-08-16","Placebo",0,84,">80",3,"WHITE",1,"M","Y","Y","Y","Week 24",24,"WEEK 24",12,169,"2014-08-02","Naming Objects And Fingers (Refer To 5 C","ACITM02",2,"0","0","0","","","Y","",">140",168,1,141,null,"DAYS",5047],[539,"CDISCPILOT01","701","701","01-701-1130","2014-02-15","2014-08-16","Placebo",0,84,">80",3,"WHITE",1,"M","Y","Y","Y","Baseline",0,"BASELINE",3,1,"2014-02-15","Delayed Word Recall","ACITM03",3,"10","10","","","Y","Y","","<=1",1,0,null,1,"DAYS",5003],[540,"CDISCPILOT01","701","701","01-701-1130","2014-02-15","2014-08-16","Placebo",0,84,">80",3,"WHITE",1,"M","Y","Y","Y","Week 8",8,"WEEK 8",8,57,"2014-04-12","Delayed Word Recall","ACITM03",3,"10","10","0","0","","Y","","2-84",56,1,2,84,"DAYS",5018],[541,"CDISCPILOT01","701","701","01-701-1130","2014-02-15","2014-08-16","Placebo",0,84,">80",3,"WHITE",1,"M","Y","Y","Y","Week 16",16,"WEEK 16",10,113,"2014-06-07","Delayed Word Recall","ACITM03",3,"10","10","0","0","","Y","","85-140",112,1,85,140,"DAYS",5033],[542,"CDISCPILOT01","701","701","01-701-1130","2014-02-15","2014-08-16","Placebo",0,84,">80",3,"WHITE",1,"M","Y","Y","Y","Week 24",24,"WEEK 24",12,169,"2014-08-02","Delayed Word Recall","ACITM03",3,"10","10","0","0","","Y","",">140",168,1,141,null,"DAYS",5048],[543,"CDISCPILOT01","701","701","01-701-1130","2014-02-15","2014-08-16","Placebo",0,84,">80",3,"WHITE",1,"M","Y","Y","Y","Baseline",0,"BASELINE",3,1,"2014-02-15","Commands","ACITM04",4,"0","0","","","Y","Y","","<=1",1,0,null,1,"DAYS",5004],[544,"CDISCPILOT01","701","701","01-701-1130","2014-02-15","2014-08-16","Placebo",0,84,">80",3,"WHITE",1,"M","Y","Y","Y","Week 8",8,"WEEK 8",8,57,"2014-04-12","Commands","ACITM04",4,"0","0","0","","","Y","","2-84",56,1,2,84,"DAYS",5019],[545,"CDISCPILOT01","701","701","01-701-1130","2014-02-15","2014-08-16","Placebo",0,84,">80",3,"WHITE",1,"M","Y","Y","Y","Week 16",16,"WEEK 16",10,113,"2014-06-07","Commands","ACITM04",4,"0","0","0","","","Y","","85-140",112,1,85,140,"DAYS",5034],[546,"CDISCPILOT01","701","701","01-701-1130","2014-02-15","2014-08-16","Placebo",0,84,">80",3,"WHITE",1,"M","Y","Y","Y","Week 24",24,"WEEK 24",12,169,"2014-08-02","Commands","ACITM04",4,"0","0","0","","","Y","",">140",168,1,141,null,"DAYS",5049],[547,"CDISCPILOT01","701","701","01-701-1130","2014-02-15","2014-08-16","Placebo",0,84,">80",3,"WHITE",1,"M","Y","Y","Y","Baseline",0,"BASELINE",3,1,"2014-02-15","Constructional Praxis","ACITM05",5,"0","0","","","Y","Y","","<=1",1,0,null,1,"DAYS",5005],[548,"CDISCPILOT01","701","701","01-701-1130","2014-02-15","2014-08-16","Placebo",0,84,">80",3,"WHITE",1,"M","Y","Y","Y","Week 8",8,"WEEK 8",8,57,"2014-04-12","Constructional Praxis","ACITM05",5,"1","0","1","","","Y","","2-84",56,1,2,84,"DAYS",5020],[549,"CDISCPILOT01","701","701","01-701-1130","2014-02-15","2014-08-16","Placebo",0,84,">80",3,"WHITE",1,"M","Y","Y","Y","Week 16",16,"WEEK 16",10,113,"2014-06-07","Constructional Praxis","ACITM05",5,"0","0","0","","","Y","","85-140",112,1,85,140,"DAYS",5035],[550,"CDISCPILOT01","701","701","01-701-1130","2014-02-15","2014-08-16","Placebo",0,84,">80",3,"WHITE",1,"M","Y","Y","Y","Week 24",24,"WEEK 24",12,169,"2014-08-02","Constructional Praxis","ACITM05",5,"1","0","1","","","Y","",">140",168,1,141,null,"DAYS",5050],[551,"CDISCPILOT01","701","701","01-701-1130","2014-02-15","2014-08-16","Placebo",0,84,">80",3,"WHITE",1,"M","Y","Y","Y","Baseline",0,"BASELINE",3,1,"2014-02-15","Ideational Praxis","ACITM06",6,"2","2","","","Y","Y","","<=1",1,0,null,1,"DAYS",5006],[552,"CDISCPILOT01","701","701","01-701-1130","2014-02-15","2014-08-16","Placebo",0,84,">80",3,"WHITE",1,"M","Y","Y","Y","Week 8",8,"WEEK 8",8,57,"2014-04-12","Ideational Praxis","ACITM06",6,"1","2","-1","-50","","Y","","2-84",56,1,2,84,"DAYS",5021],[553,"CDISCPILOT01","701","701","01-701-1130","2014-02-15","2014-08-16","Placebo",0,84,">80",3,"WHITE",1,"M","Y","Y","Y","Week 16",16,"WEEK 16",10,113,"2014-06-07","Ideational Praxis","ACITM06",6,"1","2","-1","-50","","Y","","85-140",112,1,85,140,"DAYS",5036],[554,"CDISCPILOT01","701","701","01-701-1130","2014-02-15","2014-08-16","Placebo",0,84,">80",3,"WHITE",1,"M","Y","Y","Y","Week 24",24,"WEEK 24",12,169,"2014-08-02","Ideational Praxis","ACITM06",6,"1","2","-1","-50","","Y","",">140",168,1,141,null,"DAYS",5051],[555,"CDISCPILOT01","701","701","01-701-1130","2014-02-15","2014-08-16","Placebo",0,84,">80",3,"WHITE",1,"M","Y","Y","Y","Baseline",0,"BASELINE",3,1,"2014-02-15","Orientation","ACITM07",7,"5","5","","","Y","Y","","<=1",1,0,null,1,"DAYS",5007],[556,"CDISCPILOT01","701","701","01-701-1130","2014-02-15","2014-08-16","Placebo",0,84,">80",3,"WHITE",1,"M","Y","Y","Y","Week 8",8,"WEEK 8",8,57,"2014-04-12","Orientation","ACITM07",7,"3","5","-2","-40","","Y","","2-84",56,1,2,84,"DAYS",5022],[557,"CDISCPILOT01","701","701","01-701-1130","2014-02-15","2014-08-16","Placebo",0,84,">80",3,"WHITE",1,"M","Y","Y","Y","Week 16",16,"WEEK 16",10,113,"2014-06-07","Orientation","ACITM07",7,"3","5","-2","-40","","Y","","85-140",112,1,85,140,"DAYS",5037],[558,"CDISCPILOT01","701","701","01-701-1130","2014-02-15","2014-08-16","Placebo",0,84,">80",3,"WHITE",1,"M","Y","Y","Y","Week 24",24,"WEEK 24",12,169,"2014-08-02","Orientation","ACITM07",7,"3","5","-2","-40","","Y","",">140",168,1,141,null,"DAYS",5052],[559,"CDISCPILOT01","701","701","01-701-1130","2014-02-15","2014-08-16","Placebo",0,84,">80",3,"WHITE",1,"M","Y","Y","Y","Baseline",0,"BASELINE",3,1,"2014-02-15","Word Recognition","ACITM08",8,"8","8","","","Y","Y","","<=1",1,0,null,1,"DAYS",5008],[560,"CDISCPILOT01","701","701","01-701-1130","2014-02-15","2014-08-16","Placebo",0,84,">80",3,"WHITE",1,"M","Y","Y","Y","Week 8",8,"WEEK 8",8,57,"2014-04-12","Word Recognition","ACITM08",8,"3","8","-5","-62.5","","Y","","2-84",56,1,2,84,"DAYS",5023],[561,"CDISCPILOT01","701","701","01-701-1130","2014-02-15","2014-08-16","Placebo",0,84,">80",3,"WHITE",1,"M","Y","Y","Y","Week 16",16,"WEEK 16",10,113,"2014-06-07","Word Recognition","ACITM08",8,"3","8","-5","-62.5","","Y","","85-140",112,1,85,140,"DAYS",5038],[562,"CDISCPILOT01","701","701","01-701-1130","2014-02-15","2014-08-16","Placebo",0,84,">80",3,"WHITE",1,"M","Y","Y","Y","Week 24",24,"WEEK 24",12,169,"2014-08-02","Word Recognition","ACITM08",8,"5","8","-3","-37.5","","Y","",">140",168,1,141,null,"DAYS",5053],[563,"CDISCPILOT01","701","701","01-701-1130","2014-02-15","2014-08-16","Placebo",0,84,">80",3,"WHITE",1,"M","Y","Y","Y","Baseline",0,"BASELINE",3,1,"2014-02-15","Attention/Visual Search Task","ACITM09",9,"25","25","","","Y","Y","","<=1",1,0,null,1,"DAYS",5009],[564,"CDISCPILOT01","701","701","01-701-1130","2014-02-15","2014-08-16","Placebo",0,84,">80",3,"WHITE",1,"M","Y","Y","Y","Week 8",8,"WEEK 8",8,57,"2014-04-12","Attention/Visual Search Task","ACITM09",9,"19","25","-6","-24","","Y","","2-84",56,1,2,84,"DAYS",5024],[565,"CDISCPILOT01","701","701","01-701-1130","2014-02-15","2014-08-16","Placebo",0,84,">80",3,"WHITE",1,"M","Y","Y","Y","Week 16",16,"WEEK 16",10,113,"2014-06-07","Attention/Visual Search Task","ACITM09",9,"24","25","-1","-4","","Y","","85-140",112,1,85,140,"DAYS",5039],[566,"CDISCPILOT01","701","701","01-701-1130","2014-02-15","2014-08-16","Placebo",0,84,">80",3,"WHITE",1,"M","Y","Y","Y","Week 24",24,"WEEK 24",12,169,"2014-08-02","Attention/Visual Search Task","ACITM09",9,"28","25","3","12","","Y","",">140",168,1,141,null,"DAYS",5054],[567,"CDISCPILOT01","701","701","01-701-1130","2014-02-15","2014-08-16","Placebo",0,84,">80",3,"WHITE",1,"M","Y","Y","Y","Baseline",0,"BASELINE",3,1,"2014-02-15","Maze Solution","ACITM10",10,"4","4","","","Y","Y","","<=1",1,0,null,1,"DAYS",5010],[568,"CDISCPILOT01","701","701","01-701-1130","2014-02-15","2014-08-16","Placebo",0,84,">80",3,"WHITE",1,"M","Y","Y","Y","Week 8",8,"WEEK 8",8,57,"2014-04-12","Maze Solution","ACITM10",10,"8","4","4","100","","Y","","2-84",56,1,2,84,"DAYS",5025],[569,"CDISCPILOT01","701","701","01-701-1130","2014-02-15","2014-08-16","Placebo",0,84,">80",3,"WHITE",1,"M","Y","Y","Y","Week 16",16,"WEEK 16",10,113,"2014-06-07","Maze Solution","ACITM10",10,"7","4","3","75","","Y","","85-140",112,1,85,140,"DAYS",5040],[570,"CDISCPILOT01","701","701","01-701-1130","2014-02-15","2014-08-16","Placebo",0,84,">80",3,"WHITE",1,"M","Y","Y","Y","Week 24",24,"WEEK 24",12,169,"2014-08-02","Maze Solution","ACITM10",10,"5","4","1","25","","Y","",">140",168,1,141,null,"DAYS",5055],[571,"CDISCPILOT01","701","701","01-701-1130","2014-02-15","2014-08-16","Placebo",0,84,">80",3,"WHITE",1,"M","Y","Y","Y","Baseline",0,"BASELINE",3,1,"2014-02-15","Spoken Language Ability","ACITM11",11,"0","0","","","Y","Y","","<=1",1,0,null,1,"DAYS",5011],[572,"CDISCPILOT01","701","701","01-701-1130","2014-02-15","2014-08-16","Placebo",0,84,">80",3,"WHITE",1,"M","Y","Y","Y","Week 8",8,"WEEK 8",8,57,"2014-04-12","Spoken Language Ability","ACITM11",11,"0","0","0","","","Y","","2-84",56,1,2,84,"DAYS",5026],[573,"CDISCPILOT01","701","701","01-701-1130","2014-02-15","2014-08-16","Placebo",0,84,">80",3,"WHITE",1,"M","Y","Y","Y","Week 16",16,"WEEK 16",10,113,"2014-06-07","Spoken Language Ability","ACITM11",11,"0","0","0","","","Y","","85-140",112,1,85,140,"DAYS",5041],[574,"CDISCPILOT01","701","701","01-701-1130","2014-02-15","2014-08-16","Placebo",0,84,">80",3,"WHITE",1,"M","Y","Y","Y","Week 24",24,"WEEK 24",12,169,"2014-08-02","Spoken Language Ability","ACITM11",11,"0","0","0","","","Y","",">140",168,1,141,null,"DAYS",5056],[575,"CDISCPILOT01","701","701","01-701-1130","2014-02-15","2014-08-16","Placebo",0,84,">80",3,"WHITE",1,"M","Y","Y","Y","Baseline",0,"BASELINE",3,1,"2014-02-15","Comprehension Of Spoken Language","ACITM12",12,"0","0","","","Y","Y","","<=1",1,0,null,1,"DAYS",5012],[576,"CDISCPILOT01","701","701","01-701-1130","2014-02-15","2014-08-16","Placebo",0,84,">80",3,"WHITE",1,"M","Y","Y","Y","Week 8",8,"WEEK 8",8,57,"2014-04-12","Comprehension Of Spoken Language","ACITM12",12,"0","0","0","","","Y","","2-84",56,1,2,84,"DAYS",5027],[577,"CDISCPILOT01","701","701","01-701-1130","2014-02-15","2014-08-16","Placebo",0,84,">80",3,"WHITE",1,"M","Y","Y","Y","Week 16",16,"WEEK 16",10,113,"2014-06-07","Comprehension Of Spoken Language","ACITM12",12,"0","0","0","","","Y","","85-140",112,1,85,140,"DAYS",5042],[578,"CDISCPILOT01","701","701","01-701-1130","2014-02-15","2014-08-16","Placebo",0,84,">80",3,"WHITE",1,"M","Y","Y","Y","Week 24",24,"WEEK 24",12,169,"2014-08-02","Comprehension Of Spoken Language","ACITM12",12,"0","0","0","","","Y","",">140",168,1,141,null,"DAYS",5057],[579,"CDISCPILOT01","701","701","01-701-1130","2014-02-15","2014-08-16","Placebo",0,84,">80",3,"WHITE",1,"M","Y","Y","Y","Baseline",0,"BASELINE",3,1,"2014-02-15","Word Finding Difficulty In Spontaneous S","ACITM13",13,"0","0","","","Y","Y","","<=1",1,0,null,1,"DAYS",5013],[580,"CDISCPILOT01","701","701","01-701-1130","2014-02-15","2014-08-16","Placebo",0,84,">80",3,"WHITE",1,"M","Y","Y","Y","Week 8",8,"WEEK 8",8,57,"2014-04-12","Word Finding Difficulty In Spontaneous S","ACITM13",13,"0","0","0","","","Y","","2-84",56,1,2,84,"DAYS",5028],[581,"CDISCPILOT01","701","701","01-701-1130","2014-02-15","2014-08-16","Placebo",0,84,">80",3,"WHITE",1,"M","Y","Y","Y","Week 16",16,"WEEK 16",10,113,"2014-06-07","Word Finding Difficulty In Spontaneous S","ACITM13",13,"0","0","0","","","Y","","85-140",112,1,85,140,"DAYS",5043],[582,"CDISCPILOT01","701","701","01-701-1130","2014-02-15","2014-08-16","Placebo",0,84,">80",3,"WHITE",1,"M","Y","Y","Y","Week 24",24,"WEEK 24",12,169,"2014-08-02","Word Finding Difficulty In Spontaneous S","ACITM13",13,"0","0","0","","","Y","",">140",168,1,141,null,"DAYS",5058],[583,"CDISCPILOT01","701","701","01-701-1130","2014-02-15","2014-08-16","Placebo",0,84,">80",3,"WHITE",1,"M","Y","Y","Y","Baseline",0,"BASELINE",3,1,"2014-02-15","Recall Of Test Instructions","ACITM14",14,"0","0","","","Y","Y","","<=1",1,0,null,1,"DAYS",5014],[584,"CDISCPILOT01","701","701","01-701-1130","2014-02-15","2014-08-16","Placebo",0,84,">80",3,"WHITE",1,"M","Y","Y","Y","Week 8",8,"WEEK 8",8,57,"2014-04-12","Recall Of Test Instructions","ACITM14",14,"0","0","0","","","Y","","2-84",56,1,2,84,"DAYS",5029],[585,"CDISCPILOT01","701","701","01-701-1130","2014-02-15","2014-08-16","Placebo",0,84,">80",3,"WHITE",1,"M","Y","Y","Y","Week 16",16,"WEEK 16",10,113,"2014-06-07","Recall Of Test Instructions","ACITM14",14,"0","0","0","","","Y","","85-140",112,1,85,140,"DAYS",5044],[586,"CDISCPILOT01","701","701","01-701-1130","2014-02-15","2014-08-16","Placebo",0,84,">80",3,"WHITE",1,"M","Y","Y","Y","Week 24",24,"WEEK 24",12,169,"2014-08-02","Recall Of Test Instructions","ACITM14",14,"0","0","0","","","Y","",">140",168,1,141,null,"DAYS",5059],[587,"CDISCPILOT01","701","701","01-701-1130","2014-02-15","2014-08-16","Placebo",0,84,">80",3,"WHITE",1,"M","Y","Y","Y","Baseline",0,"BASELINE",3,1,"2014-02-15","Adas-Cog(11) Subscore","ACTOT",15,"19","19","","","Y","Y","","<=1",1,0,null,1,"DAYS",5015],[588,"CDISCPILOT01","701","701","01-701-1130","2014-02-15","2014-08-16","Placebo",0,84,">80",3,"WHITE",1,"M","Y","Y","Y","Week 8",8,"WEEK 8",8,57,"2014-04-12","Adas-Cog(11) Subscore","ACTOT",15,"12","19","-7","-36.8421052631578","","Y","","2-84",56,1,2,84,"DAYS",5030],[589,"CDISCPILOT01","701","701","01-701-1130","2014-02-15","2014-08-16","Placebo",0,84,">80",3,"WHITE",1,"M","Y","Y","Y","Week 16",16,"WEEK 16",10,113,"2014-06-07","Adas-Cog(11) Subscore","ACTOT",15,"12","19","-7","-36.8421052631578","","Y","","85-140",112,1,85,140,"DAYS",5045],[590,"CDISCPILOT01","701","701","01-701-1130","2014-02-15","2014-08-16","Placebo",0,84,">80",3,"WHITE",1,"M","Y","Y","Y","Week 24",24,"WEEK 24",12,169,"2014-08-02","Adas-Cog(11) Subscore","ACTOT",15,"14","19","-5","-26.3157894736842","","Y","",">140",168,1,141,null,"DAYS",5060],[591,"CDISCPILOT01","701","701","01-701-1133","2012-10-28","2013-04-28","Xanomeline High Dose",81,81,">80",3,"WHITE",1,"F","Y","Y","Y","Baseline",0,"BASELINE",3,1,"2012-10-28","Word Recall Task","ACITM01",1,"7","7","","","Y","Y","","<=1",1,0,null,1,"DAYS",5001],[592,"CDISCPILOT01","701","701","01-701-1133","2012-10-28","2013-04-28","Xanomeline High Dose",81,81,">80",3,"WHITE",1,"F","Y","Y","Y","Week 8",8,"WEEK 8",8,58,"2012-12-24","Word Recall Task","ACITM01",1,"6","7","-1","-14.2857142857142","","Y","","2-84",56,2,2,84,"DAYS",5016],[593,"CDISCPILOT01","701","701","01-701-1133","2012-10-28","2013-04-28","Xanomeline High Dose",81,81,">80",3,"WHITE",1,"F","Y","Y","Y","Week 16",16,"WEEK 16",10,114,"2013-02-18","Word Recall Task","ACITM01",1,"6","7","-1","-14.2857142857142","","Y","","85-140",112,2,85,140,"DAYS",5031],[594,"CDISCPILOT01","701","701","01-701-1133","2012-10-28","2013-04-28","Xanomeline High Dose",81,81,">80",3,"WHITE",1,"F","Y","Y","Y","Week 24",24,"WEEK 24",12,173,"2013-04-18","Word Recall Task","ACITM01",1,"6","7","-1","-14.2857142857142","","Y","",">140",168,5,141,null,"DAYS",5046],[595,"CDISCPILOT01","701","701","01-701-1133","2012-10-28","2013-04-28","Xanomeline High Dose",81,81,">80",3,"WHITE",1,"F","Y","Y","Y","Baseline",0,"BASELINE",3,1,"2012-10-28","Naming Objects And Fingers (Refer To 5 C","ACITM02",2,"0","0","","","Y","Y","","<=1",1,0,null,1,"DAYS",5002],[596,"CDISCPILOT01","701","701","01-701-1133","2012-10-28","2013-04-28","Xanomeline High Dose",81,81,">80",3,"WHITE",1,"F","Y","Y","Y","Week 8",8,"WEEK 8",8,58,"2012-12-24","Naming Objects And Fingers (Refer To 5 C","ACITM02",2,"0","0","0","","","Y","","2-84",56,2,2,84,"DAYS",5017],[597,"CDISCPILOT01","701","701","01-701-1133","2012-10-28","2013-04-28","Xanomeline High Dose",81,81,">80",3,"WHITE",1,"F","Y","Y","Y","Week 16",16,"WEEK 16",10,114,"2013-02-18","Naming Objects And Fingers (Refer To 5 C","ACITM02",2,"0","0","0","","","Y","","85-140",112,2,85,140,"DAYS",5032],[598,"CDISCPILOT01","701","701","01-701-1133","2012-10-28","2013-04-28","Xanomeline High Dose",81,81,">80",3,"WHITE",1,"F","Y","Y","Y","Week 24",24,"WEEK 24",12,173,"2013-04-18","Naming Objects And Fingers (Refer To 5 C","ACITM02",2,"0","0","0","","","Y","",">140",168,5,141,null,"DAYS",5047],[599,"CDISCPILOT01","701","701","01-701-1133","2012-10-28","2013-04-28","Xanomeline High Dose",81,81,">80",3,"WHITE",1,"F","Y","Y","Y","Baseline",0,"BASELINE",3,1,"2012-10-28","Delayed Word Recall","ACITM03",3,"9","9","","","Y","Y","","<=1",1,0,null,1,"DAYS",5003],[600,"CDISCPILOT01","701","701","01-701-1133","2012-10-28","2013-04-28","Xanomeline High Dose",81,81,">80",3,"WHITE",1,"F","Y","Y","Y","Week 8",8,"WEEK 8",8,58,"2012-12-24","Delayed Word Recall","ACITM03",3,"9","9","0","0","","Y","","2-84",56,2,2,84,"DAYS",5018],[601,"CDISCPILOT01","701","701","01-701-1133","2012-10-28","2013-04-28","Xanomeline High Dose",81,81,">80",3,"WHITE",1,"F","Y","Y","Y","Week 16",16,"WEEK 16",10,114,"2013-02-18","Delayed Word Recall","ACITM03",3,"8","9","-1","-11.1111111111111","","Y","","85-140",112,2,85,140,"DAYS",5033],[602,"CDISCPILOT01","701","701","01-701-1133","2012-10-28","2013-04-28","Xanomeline High Dose",81,81,">80",3,"WHITE",1,"F","Y","Y","Y","Week 24",24,"WEEK 24",12,173,"2013-04-18","Delayed Word Recall","ACITM03",3,"10","9","1","11.1111111111111","","Y","",">140",168,5,141,null,"DAYS",5048],[603,"CDISCPILOT01","701","701","01-701-1133","2012-10-28","2013-04-28","Xanomeline High Dose",81,81,">80",3,"WHITE",1,"F","Y","Y","Y","Baseline",0,"BASELINE",3,1,"2012-10-28","Commands","ACITM04",4,"0","0","","","Y","Y","","<=1",1,0,null,1,"DAYS",5004],[604,"CDISCPILOT01","701","701","01-701-1133","2012-10-28","2013-04-28","Xanomeline High Dose",81,81,">80",3,"WHITE",1,"F","Y","Y","Y","Week 8",8,"WEEK 8",8,58,"2012-12-24","Commands","ACITM04",4,"0","0","0","","","Y","","2-84",56,2,2,84,"DAYS",5019],[605,"CDISCPILOT01","701","701","01-701-1133","2012-10-28","2013-04-28","Xanomeline High Dose",81,81,">80",3,"WHITE",1,"F","Y","Y","Y","Week 16",16,"WEEK 16",10,114,"2013-02-18","Commands","ACITM04",4,"0","0","0","","","Y","","85-140",112,2,85,140,"DAYS",5034],[606,"CDISCPILOT01","701","701","01-701-1133","2012-10-28","2013-04-28","Xanomeline High Dose",81,81,">80",3,"WHITE",1,"F","Y","Y","Y","Week 24",24,"WEEK 24",12,173,"2013-04-18","Commands","ACITM04",4,"1","0","1","","","Y","",">140",168,5,141,null,"DAYS",5049],[607,"CDISCPILOT01","701","701","01-701-1133","2012-10-28","2013-04-28","Xanomeline High Dose",81,81,">80",3,"WHITE",1,"F","Y","Y","Y","Baseline",0,"BASELINE",3,1,"2012-10-28","Constructional Praxis","ACITM05",5,"1","1","","","Y","Y","","<=1",1,0,null,1,"DAYS",5005],[608,"CDISCPILOT01","701","701","01-701-1133","2012-10-28","2013-04-28","Xanomeline High Dose",81,81,">80",3,"WHITE",1,"F","Y","Y","Y","Week 8",8,"WEEK 8",8,58,"2012-12-24","Constructional Praxis","ACITM05",5,"1","1","0","0","","Y","","2-84",56,2,2,84,"DAYS",5020],[609,"CDISCPILOT01","701","701","01-701-1133","2012-10-28","2013-04-28","Xanomeline High Dose",81,81,">80",3,"WHITE",1,"F","Y","Y","Y","Week 16",16,"WEEK 16",10,114,"2013-02-18","Constructional Praxis","ACITM05",5,"1","1","0","0","","Y","","85-140",112,2,85,140,"DAYS",5035],[610,"CDISCPILOT01","701","701","01-701-1133","2012-10-28","2013-04-28","Xanomeline High Dose",81,81,">80",3,"WHITE",1,"F","Y","Y","Y","Week 24",24,"WEEK 24",12,173,"2013-04-18","Constructional Praxis","ACITM05",5,"3","1","2","200","","Y","",">140",168,5,141,null,"DAYS",5050],[611,"CDISCPILOT01","701","701","01-701-1133","2012-10-28","2013-04-28","Xanomeline High Dose",81,81,">80",3,"WHITE",1,"F","Y","Y","Y","Baseline",0,"BASELINE",3,1,"2012-10-28","Ideational Praxis","ACITM06",6,"0","0","","","Y","Y","","<=1",1,0,null,1,"DAYS",5006],[612,"CDISCPILOT01","701","701","01-701-1133","2012-10-28","2013-04-28","Xanomeline High Dose",81,81,">80",3,"WHITE",1,"F","Y","Y","Y","Week 8",8,"WEEK 8",8,58,"2012-12-24","Ideational Praxis","ACITM06",6,"0","0","0","","","Y","","2-84",56,2,2,84,"DAYS",5021],[613,"CDISCPILOT01","701","701","01-701-1133","2012-10-28","2013-04-28","Xanomeline High Dose",81,81,">80",3,"WHITE",1,"F","Y","Y","Y","Week 16",16,"WEEK 16",10,114,"2013-02-18","Ideational Praxis","ACITM06",6,"0","0","0","","","Y","","85-140",112,2,85,140,"DAYS",5036],[614,"CDISCPILOT01","701","701","01-701-1133","2012-10-28","2013-04-28","Xanomeline High Dose",81,81,">80",3,"WHITE",1,"F","Y","Y","Y","Week 24",24,"WEEK 24",12,173,"2013-04-18","Ideational Praxis","ACITM06",6,"0","0","0","","","Y","",">140",168,5,141,null,"DAYS",5051],[615,"CDISCPILOT01","701","701","01-701-1133","2012-10-28","2013-04-28","Xanomeline High Dose",81,81,">80",3,"WHITE",1,"F","Y","Y","Y","Baseline",0,"BASELINE",3,1,"2012-10-28","Orientation","ACITM07",7,"2","2","","","Y","Y","","<=1",1,0,null,1,"DAYS",5007],[616,"CDISCPILOT01","701","701","01-701-1133","2012-10-28","2013-04-28","Xanomeline High Dose",81,81,">80",3,"WHITE",1,"F","Y","Y","Y","Week 8",8,"WEEK 8",8,58,"2012-12-24","Orientation","ACITM07",7,"4","2","2","100","","Y","","2-84",56,2,2,84,"DAYS",5022],[617,"CDISCPILOT01","701","701","01-701-1133","2012-10-28","2013-04-28","Xanomeline High Dose",81,81,">80",3,"WHITE",1,"F","Y","Y","Y","Week 16",16,"WEEK 16",10,114,"2013-02-18","Orientation","ACITM07",7,"5","2","3","150","","Y","","85-140",112,2,85,140,"DAYS",5037],[618,"CDISCPILOT01","701","701","01-701-1133","2012-10-28","2013-04-28","Xanomeline High Dose",81,81,">80",3,"WHITE",1,"F","Y","Y","Y","Week 24",24,"WEEK 24",12,173,"2013-04-18","Orientation","ACITM07",7,"4","2","2","100","","Y","",">140",168,5,141,null,"DAYS",5052],[619,"CDISCPILOT01","701","701","01-701-1133","2012-10-28","2013-04-28","Xanomeline High Dose",81,81,">80",3,"WHITE",1,"F","Y","Y","Y","Baseline",0,"BASELINE",3,1,"2012-10-28","Word Recognition","ACITM08",8,"2","2","","","Y","Y","","<=1",1,0,null,1,"DAYS",5008],[620,"CDISCPILOT01","701","701","01-701-1133","2012-10-28","2013-04-28","Xanomeline High Dose",81,81,">80",3,"WHITE",1,"F","Y","Y","Y","Week 8",8,"WEEK 8",8,58,"2012-12-24","Word Recognition","ACITM08",8,"3","2","1","50","","Y","","2-84",56,2,2,84,"DAYS",5023],[621,"CDISCPILOT01","701","701","01-701-1133","2012-10-28","2013-04-28","Xanomeline High Dose",81,81,">80",3,"WHITE",1,"F","Y","Y","Y","Week 16",16,"WEEK 16",10,114,"2013-02-18","Word Recognition","ACITM08",8,"5","2","3","150","","Y","","85-140",112,2,85,140,"DAYS",5038],[622,"CDISCPILOT01","701","701","01-701-1133","2012-10-28","2013-04-28","Xanomeline High Dose",81,81,">80",3,"WHITE",1,"F","Y","Y","Y","Week 24",24,"WEEK 24",12,173,"2013-04-18","Word Recognition","ACITM08",8,"4","2","2","100","","Y","",">140",168,5,141,null,"DAYS",5053],[623,"CDISCPILOT01","701","701","01-701-1133","2012-10-28","2013-04-28","Xanomeline High Dose",81,81,">80",3,"WHITE",1,"F","Y","Y","Y","Baseline",0,"BASELINE",3,1,"2012-10-28","Attention/Visual Search Task","ACITM09",9,"24","24","","","Y","Y","","<=1",1,0,null,1,"DAYS",5009],[624,"CDISCPILOT01","701","701","01-701-1133","2012-10-28","2013-04-28","Xanomeline High Dose",81,81,">80",3,"WHITE",1,"F","Y","Y","Y","Week 8",8,"WEEK 8",8,58,"2012-12-24","Attention/Visual Search Task","ACITM09",9,"22","24","-2","-8.33333333333333","","Y","","2-84",56,2,2,84,"DAYS",5024],[625,"CDISCPILOT01","701","701","01-701-1133","2012-10-28","2013-04-28","Xanomeline High Dose",81,81,">80",3,"WHITE",1,"F","Y","Y","Y","Week 16",16,"WEEK 16",10,114,"2013-02-18","Attention/Visual Search Task","ACITM09",9,"21","24","-3","-12.5","","Y","","85-140",112,2,85,140,"DAYS",5039],[626,"CDISCPILOT01","701","701","01-701-1133","2012-10-28","2013-04-28","Xanomeline High Dose",81,81,">80",3,"WHITE",1,"F","Y","Y","Y","Week 24",24,"WEEK 24",12,173,"2013-04-18","Attention/Visual Search Task","ACITM09",9,"22","24","-2","-8.33333333333333","","Y","",">140",168,5,141,null,"DAYS",5054],[627,"CDISCPILOT01","701","701","01-701-1133","2012-10-28","2013-04-28","Xanomeline High Dose",81,81,">80",3,"WHITE",1,"F","Y","Y","Y","Baseline",0,"BASELINE",3,1,"2012-10-28","Maze Solution","ACITM10",10,"12","12","","","Y","Y","","<=1",1,0,null,1,"DAYS",5010],[628,"CDISCPILOT01","701","701","01-701-1133","2012-10-28","2013-04-28","Xanomeline High Dose",81,81,">80",3,"WHITE",1,"F","Y","Y","Y","Week 8",8,"WEEK 8",8,58,"2012-12-24","Maze Solution","ACITM10",10,"240","12","228","1900","","Y","","2-84",56,2,2,84,"DAYS",5025],[629,"CDISCPILOT01","701","701","01-701-1133","2012-10-28","2013-04-28","Xanomeline High Dose",81,81,">80",3,"WHITE",1,"F","Y","Y","Y","Week 16",16,"WEEK 16",10,114,"2013-02-18","Maze Solution","ACITM10",10,"16","12","4","33.3333333333333","","Y","","85-140",112,2,85,140,"DAYS",5040],[630,"CDISCPILOT01","701","701","01-701-1133","2012-10-28","2013-04-28","Xanomeline High Dose",81,81,">80",3,"WHITE",1,"F","Y","Y","Y","Week 24",24,"WEEK 24",12,173,"2013-04-18","Maze Solution","ACITM10",10,"14","12","2","16.6666666666666","","Y","",">140",168,5,141,null,"DAYS",5055],[631,"CDISCPILOT01","701","701","01-701-1133","2012-10-28","2013-04-28","Xanomeline High Dose",81,81,">80",3,"WHITE",1,"F","Y","Y","Y","Baseline",0,"BASELINE",3,1,"2012-10-28","Spoken Language Ability","ACITM11",11,"0","0","","","Y","Y","","<=1",1,0,null,1,"DAYS",5011],[632,"CDISCPILOT01","701","701","01-701-1133","2012-10-28","2013-04-28","Xanomeline High Dose",81,81,">80",3,"WHITE",1,"F","Y","Y","Y","Week 8",8,"WEEK 8",8,58,"2012-12-24","Spoken Language Ability","ACITM11",11,"1","0","1","","","Y","","2-84",56,2,2,84,"DAYS",5026],[633,"CDISCPILOT01","701","701","01-701-1133","2012-10-28","2013-04-28","Xanomeline High Dose",81,81,">80",3,"WHITE",1,"F","Y","Y","Y","Week 16",16,"WEEK 16",10,114,"2013-02-18","Spoken Language Ability","ACITM11",11,"1","0","1","","","Y","","85-140",112,2,85,140,"DAYS",5041],[634,"CDISCPILOT01","701","701","01-701-1133","2012-10-28","2013-04-28","Xanomeline High Dose",81,81,">80",3,"WHITE",1,"F","Y","Y","Y","Week 24",24,"WEEK 24",12,173,"2013-04-18","Spoken Language Ability","ACITM11",11,"0","0","0","","","Y","",">140",168,5,141,null,"DAYS",5056],[635,"CDISCPILOT01","701","701","01-701-1133","2012-10-28","2013-04-28","Xanomeline High Dose",81,81,">80",3,"WHITE",1,"F","Y","Y","Y","Baseline",0,"BASELINE",3,1,"2012-10-28","Comprehension Of Spoken Language","ACITM12",12,"0","0","","","Y","Y","","<=1",1,0,null,1,"DAYS",5012],[636,"CDISCPILOT01","701","701","01-701-1133","2012-10-28","2013-04-28","Xanomeline High Dose",81,81,">80",3,"WHITE",1,"F","Y","Y","Y","Week 8",8,"WEEK 8",8,58,"2012-12-24","Comprehension Of Spoken Language","ACITM12",12,"2","0","2","","","Y","","2-84",56,2,2,84,"DAYS",5027],[637,"CDISCPILOT01","701","701","01-701-1133","2012-10-28","2013-04-28","Xanomeline High Dose",81,81,">80",3,"WHITE",1,"F","Y","Y","Y","Week 16",16,"WEEK 16",10,114,"2013-02-18","Comprehension Of Spoken Language","ACITM12",12,"2","0","2","","","Y","","85-140",112,2,85,140,"DAYS",5042],[638,"CDISCPILOT01","701","701","01-701-1133","2012-10-28","2013-04-28","Xanomeline High Dose",81,81,">80",3,"WHITE",1,"F","Y","Y","Y","Week 24",24,"WEEK 24",12,173,"2013-04-18","Comprehension Of Spoken Language","ACITM12",12,"0","0","0","","","Y","",">140",168,5,141,null,"DAYS",5057],[639,"CDISCPILOT01","701","701","01-701-1133","2012-10-28","2013-04-28","Xanomeline High Dose",81,81,">80",3,"WHITE",1,"F","Y","Y","Y","Baseline",0,"BASELINE",3,1,"2012-10-28","Word Finding Difficulty In Spontaneous S","ACITM13",13,"1","1","","","Y","Y","","<=1",1,0,null,1,"DAYS",5013],[640,"CDISCPILOT01","701","701","01-701-1133","2012-10-28","2013-04-28","Xanomeline High Dose",81,81,">80",3,"WHITE",1,"F","Y","Y","Y","Week 8",8,"WEEK 8",8,58,"2012-12-24","Word Finding Difficulty In Spontaneous S","ACITM13",13,"1","1","0","0","","Y","","2-84",56,2,2,84,"DAYS",5028],[641,"CDISCPILOT01","701","701","01-701-1133","2012-10-28","2013-04-28","Xanomeline High Dose",81,81,">80",3,"WHITE",1,"F","Y","Y","Y","Week 16",16,"WEEK 16",10,114,"2013-02-18","Word Finding Difficulty In Spontaneous S","ACITM13",13,"1","1","0","0","","Y","","85-140",112,2,85,140,"DAYS",5043],[642,"CDISCPILOT01","701","701","01-701-1133","2012-10-28","2013-04-28","Xanomeline High Dose",81,81,">80",3,"WHITE",1,"F","Y","Y","Y","Week 24",24,"WEEK 24",12,173,"2013-04-18","Word Finding Difficulty In Spontaneous S","ACITM13",13,"0","1","-1","-100","","Y","",">140",168,5,141,null,"DAYS",5058],[643,"CDISCPILOT01","701","701","01-701-1133","2012-10-28","2013-04-28","Xanomeline High Dose",81,81,">80",3,"WHITE",1,"F","Y","Y","Y","Baseline",0,"BASELINE",3,1,"2012-10-28","Recall Of Test Instructions","ACITM14",14,"0","0","","","Y","Y","","<=1",1,0,null,1,"DAYS",5014],[644,"CDISCPILOT01","701","701","01-701-1133","2012-10-28","2013-04-28","Xanomeline High Dose",81,81,">80",3,"WHITE",1,"F","Y","Y","Y","Week 8",8,"WEEK 8",8,58,"2012-12-24","Recall Of Test Instructions","ACITM14",14,"2","0","2","","","Y","","2-84",56,2,2,84,"DAYS",5029],[645,"CDISCPILOT01","701","701","01-701-1133","2012-10-28","2013-04-28","Xanomeline High Dose",81,81,">80",3,"WHITE",1,"F","Y","Y","Y","Week 16",16,"WEEK 16",10,114,"2013-02-18","Recall Of Test Instructions","ACITM14",14,"1","0","1","","","Y","","85-140",112,2,85,140,"DAYS",5044],[646,"CDISCPILOT01","701","701","01-701-1133","2012-10-28","2013-04-28","Xanomeline High Dose",81,81,">80",3,"WHITE",1,"F","Y","Y","Y","Week 24",24,"WEEK 24",12,173,"2013-04-18","Recall Of Test Instructions","ACITM14",14,"0","0","0","","","Y","",">140",168,5,141,null,"DAYS",5059],[647,"CDISCPILOT01","701","701","01-701-1133","2012-10-28","2013-04-28","Xanomeline High Dose",81,81,">80",3,"WHITE",1,"F","Y","Y","Y","Baseline",0,"BASELINE",3,1,"2012-10-28","Adas-Cog(11) Subscore","ACTOT",15,"13","13","","","Y","Y","","<=1",1,0,null,1,"DAYS",5015],[648,"CDISCPILOT01","701","701","01-701-1133","2012-10-28","2013-04-28","Xanomeline High Dose",81,81,">80",3,"WHITE",1,"F","Y","Y","Y","Week 8",8,"WEEK 8",8,58,"2012-12-24","Adas-Cog(11) Subscore","ACTOT",15,"20","13","7","53.8461538461538","","Y","","2-84",56,2,2,84,"DAYS",5030],[649,"CDISCPILOT01","701","701","01-701-1133","2012-10-28","2013-04-28","Xanomeline High Dose",81,81,">80",3,"WHITE",1,"F","Y","Y","Y","Week 16",16,"WEEK 16",10,114,"2013-02-18","Adas-Cog(11) Subscore","ACTOT",15,"22","13","9","69.2307692307692","","Y","","85-140",112,2,85,140,"DAYS",5045],[650,"CDISCPILOT01","701","701","01-701-1133","2012-10-28","2013-04-28","Xanomeline High Dose",81,81,">80",3,"WHITE",1,"F","Y","Y","Y","Week 24",24,"WEEK 24",12,173,"2013-04-18","Adas-Cog(11) Subscore","ACTOT",15,"18","13","5","38.4615384615384","","Y","",">140",168,5,141,null,"DAYS",5060],[651,"CDISCPILOT01","701","701","01-701-1146","2013-05-20","2013-06-26","Xanomeline High Dose",81,75,"65-80",2,"WHITE",1,"F","Y","Y","N","Baseline",0,"BASELINE",3,1,"2013-05-20","Word Recall Task","ACITM01",1,"5","5","","","Y","Y","","<=1",1,0,null,1,"DAYS",5001],[652,"CDISCPILOT01","701","701","01-701-1146","2013-05-20","2013-06-26","Xanomeline High Dose",81,75,"65-80",2,"WHITE",1,"F","Y","Y","N","Week 8",8,"WEEK 6",7,42,"2013-06-30","Word Recall Task","ACITM01",1,"4","5","-1","-20","","Y","","2-84",56,14,2,84,"DAYS",5016],[653,"CDISCPILOT01","701","701","01-701-1146","2013-05-20","2013-06-26","Xanomeline High Dose",81,75,"65-80",2,"WHITE",1,"F","Y","Y","N","Baseline",0,"BASELINE",3,1,"2013-05-20","Naming Objects And Fingers (Refer To 5 C","ACITM02",2,"0","0","","","Y","Y","","<=1",1,0,null,1,"DAYS",5002],[654,"CDISCPILOT01","701","701","01-701-1146","2013-05-20","2013-06-26","Xanomeline High Dose",81,75,"65-80",2,"WHITE",1,"F","Y","Y","N","Week 8",8,"WEEK 6",7,42,"2013-06-30","Naming Objects And Fingers (Refer To 5 C","ACITM02",2,"0","0","0","","","Y","","2-84",56,14,2,84,"DAYS",5017],[655,"CDISCPILOT01","701","701","01-701-1146","2013-05-20","2013-06-26","Xanomeline High Dose",81,75,"65-80",2,"WHITE",1,"F","Y","Y","N","Baseline",0,"BASELINE",3,1,"2013-05-20","Delayed Word Recall","ACITM03",3,"9","9","","","Y","Y","","<=1",1,0,null,1,"DAYS",5003],[656,"CDISCPILOT01","701","701","01-701-1146","2013-05-20","2013-06-26","Xanomeline High Dose",81,75,"65-80",2,"WHITE",1,"F","Y","Y","N","Week 8",8,"WEEK 6",7,42,"2013-06-30","Delayed Word Recall","ACITM03",3,"9","9","0","0","","Y","","2-84",56,14,2,84,"DAYS",5018],[657,"CDISCPILOT01","701","701","01-701-1146","2013-05-20","2013-06-26","Xanomeline High Dose",81,75,"65-80",2,"WHITE",1,"F","Y","Y","N","Baseline",0,"BASELINE",3,1,"2013-05-20","Commands","ACITM04",4,"0","0","","","Y","Y","","<=1",1,0,null,1,"DAYS",5004],[658,"CDISCPILOT01","701","701","01-701-1146","2013-05-20","2013-06-26","Xanomeline High Dose",81,75,"65-80",2,"WHITE",1,"F","Y","Y","N","Week 8",8,"WEEK 6",7,42,"2013-06-30","Commands","ACITM04",4,"0","0","0","","","Y","","2-84",56,14,2,84,"DAYS",5019],[659,"CDISCPILOT01","701","701","01-701-1146","2013-05-20","2013-06-26","Xanomeline High Dose",81,75,"65-80",2,"WHITE",1,"F","Y","Y","N","Baseline",0,"BASELINE",3,1,"2013-05-20","Constructional Praxis","ACITM05",5,"0","0","","","Y","Y","","<=1",1,0,null,1,"DAYS",5005],[660,"CDISCPILOT01","701","701","01-701-1146","2013-05-20","2013-06-26","Xanomeline High Dose",81,75,"65-80",2,"WHITE",1,"F","Y","Y","N","Week 8",8,"WEEK 6",7,42,"2013-06-30","Constructional Praxis","ACITM05",5,"0","0","0","","","Y","","2-84",56,14,2,84,"DAYS",5020],[661,"CDISCPILOT01","701","701","01-701-1146","2013-05-20","2013-06-26","Xanomeline High Dose",81,75,"65-80",2,"WHITE",1,"F","Y","Y","N","Baseline",0,"BASELINE",3,1,"2013-05-20","Ideational Praxis","ACITM06",6,"1","1","","","Y","Y","","<=1",1,0,null,1,"DAYS",5006],[662,"CDISCPILOT01","701","701","01-701-1146","2013-05-20","2013-06-26","Xanomeline High Dose",81,75,"65-80",2,"WHITE",1,"F","Y","Y","N","Week 8",8,"WEEK 6",7,42,"2013-06-30","Ideational Praxis","ACITM06",6,"1","1","0","0","","Y","","2-84",56,14,2,84,"DAYS",5021],[663,"CDISCPILOT01","701","701","01-701-1146","2013-05-20","2013-06-26","Xanomeline High Dose",81,75,"65-80",2,"WHITE",1,"F","Y","Y","N","Baseline",0,"BASELINE",3,1,"2013-05-20","Orientation","ACITM07",7,"0","0","","","Y","Y","","<=1",1,0,null,1,"DAYS",5007],[664,"CDISCPILOT01","701","701","01-701-1146","2013-05-20","2013-06-26","Xanomeline High Dose",81,75,"65-80",2,"WHITE",1,"F","Y","Y","N","Week 8",8,"WEEK 6",7,42,"2013-06-30","Orientation","ACITM07",7,"0","0","0","","","Y","","2-84",56,14,2,84,"DAYS",5022],[665,"CDISCPILOT01","701","701","01-701-1146","2013-05-20","2013-06-26","Xanomeline High Dose",81,75,"65-80",2,"WHITE",1,"F","Y","Y","N","Baseline",0,"BASELINE",3,1,"2013-05-20","Word Recognition","ACITM08",8,"4","4","","","Y","Y","","<=1",1,0,null,1,"DAYS",5008],[666,"CDISCPILOT01","701","701","01-701-1146","2013-05-20","2013-06-26","Xanomeline High Dose",81,75,"65-80",2,"WHITE",1,"F","Y","Y","N","Week 8",8,"WEEK 6",7,42,"2013-06-30","Word Recognition","ACITM08",8,"3","4","-1","-25","","Y","","2-84",56,14,2,84,"DAYS",5023],[667,"CDISCPILOT01","701","701","01-701-1146","2013-05-20","2013-06-26","Xanomeline High Dose",81,75,"65-80",2,"WHITE",1,"F","Y","Y","N","Baseline",0,"BASELINE",3,1,"2013-05-20","Attention/Visual Search Task","ACITM09",9,"17","17","","","Y","Y","","<=1",1,0,null,1,"DAYS",5009],[668,"CDISCPILOT01","701","701","01-701-1146","2013-05-20","2013-06-26","Xanomeline High Dose",81,75,"65-80",2,"WHITE",1,"F","Y","Y","N","Week 8",8,"WEEK 6",7,42,"2013-06-30","Attention/Visual Search Task","ACITM09",9,"19","17","2","11.7647058823529","","Y","","2-84",56,14,2,84,"DAYS",5024],[669,"CDISCPILOT01","701","701","01-701-1146","2013-05-20","2013-06-26","Xanomeline High Dose",81,75,"65-80",2,"WHITE",1,"F","Y","Y","N","Baseline",0,"BASELINE",3,1,"2013-05-20","Maze Solution","ACITM10",10,"3","3","","","Y","Y","","<=1",1,0,null,1,"DAYS",5010],[670,"CDISCPILOT01","701","701","01-701-1146","2013-05-20","2013-06-26","Xanomeline High Dose",81,75,"65-80",2,"WHITE",1,"F","Y","Y","N","Week 8",8,"WEEK 6",7,42,"2013-06-30","Maze Solution","ACITM10",10,"13","3","10","333.333333333333","","Y","","2-84",56,14,2,84,"DAYS",5025],[671,"CDISCPILOT01","701","701","01-701-1146","2013-05-20","2013-06-26","Xanomeline High Dose",81,75,"65-80",2,"WHITE",1,"F","Y","Y","N","Baseline",0,"BASELINE",3,1,"2013-05-20","Spoken Language Ability","ACITM11",11,"1","1","","","Y","Y","","<=1",1,0,null,1,"DAYS",5011],[672,"CDISCPILOT01","701","701","01-701-1146","2013-05-20","2013-06-26","Xanomeline High Dose",81,75,"65-80",2,"WHITE",1,"F","Y","Y","N","Week 8",8,"WEEK 6",7,42,"2013-06-30","Spoken Language Ability","ACITM11",11,"0","1","-1","-100","","Y","","2-84",56,14,2,84,"DAYS",5026],[673,"CDISCPILOT01","701","701","01-701-1146","2013-05-20","2013-06-26","Xanomeline High Dose",81,75,"65-80",2,"WHITE",1,"F","Y","Y","N","Baseline",0,"BASELINE",3,1,"2013-05-20","Comprehension Of Spoken Language","ACITM12",12,"0","0","","","Y","Y","","<=1",1,0,null,1,"DAYS",5012],[674,"CDISCPILOT01","701","701","01-701-1146","2013-05-20","2013-06-26","Xanomeline High Dose",81,75,"65-80",2,"WHITE",1,"F","Y","Y","N","Week 8",8,"WEEK 6",7,42,"2013-06-30","Comprehension Of Spoken Language","ACITM12",12,"0","0","0","","","Y","","2-84",56,14,2,84,"DAYS",5027],[675,"CDISCPILOT01","701","701","01-701-1146","2013-05-20","2013-06-26","Xanomeline High Dose",81,75,"65-80",2,"WHITE",1,"F","Y","Y","N","Baseline",0,"BASELINE",3,1,"2013-05-20","Word Finding Difficulty In Spontaneous S","ACITM13",13,"0","0","","","Y","Y","","<=1",1,0,null,1,"DAYS",5013],[676,"CDISCPILOT01","701","701","01-701-1146","2013-05-20","2013-06-26","Xanomeline High Dose",81,75,"65-80",2,"WHITE",1,"F","Y","Y","N","Week 8",8,"WEEK 6",7,42,"2013-06-30","Word Finding Difficulty In Spontaneous S","ACITM13",13,"0","0","0","","","Y","","2-84",56,14,2,84,"DAYS",5028],[677,"CDISCPILOT01","701","701","01-701-1146","2013-05-20","2013-06-26","Xanomeline High Dose",81,75,"65-80",2,"WHITE",1,"F","Y","Y","N","Baseline",0,"BASELINE",3,1,"2013-05-20","Recall Of Test Instructions","ACITM14",14,"0","0","","","Y","Y","","<=1",1,0,null,1,"DAYS",5014],[678,"CDISCPILOT01","701","701","01-701-1146","2013-05-20","2013-06-26","Xanomeline High Dose",81,75,"65-80",2,"WHITE",1,"F","Y","Y","N","Week 8",8,"WEEK 6",7,42,"2013-06-30","Recall Of Test Instructions","ACITM14",14,"2","0","2","","","Y","","2-84",56,14,2,84,"DAYS",5029],[679,"CDISCPILOT01","701","701","01-701-1146","2013-05-20","2013-06-26","Xanomeline High Dose",81,75,"65-80",2,"WHITE",1,"F","Y","Y","N","Baseline",0,"BASELINE",3,1,"2013-05-20","Adas-Cog(11) Subscore","ACTOT",15,"11","11","","","Y","Y","","<=1",1,0,null,1,"DAYS",5015],[680,"CDISCPILOT01","701","701","01-701-1146","2013-05-20","2013-06-26","Xanomeline High Dose",81,75,"65-80",2,"WHITE",1,"F","Y","Y","N","Week 8",8,"WEEK 6",7,42,"2013-06-30","Adas-Cog(11) Subscore","ACTOT",15,"10","11","-1","-9.09090909090909","","Y","","2-84",56,14,2,84,"DAYS",5030],[681,"CDISCPILOT01","701","701","01-701-1146","2013-05-20","2013-06-26","Xanomeline High Dose",81,75,"65-80",2,"WHITE",1,"F","Y","Y","N","Week 16",16,"WEEK 6",7,42,"2013-06-30","Adas-Cog(11) Subscore","ACTOT",15,"10","11","-1","-9.09090909090909","","Y","LOCF","85-140",112,70,85,140,"DAYS",5030],[682,"CDISCPILOT01","701","701","01-701-1146","2013-05-20","2013-06-26","Xanomeline High Dose",81,75,"65-80",2,"WHITE",1,"F","Y","Y","N","Week 24",24,"WEEK 6",7,42,"2013-06-30","Adas-Cog(11) Subscore","ACTOT",15,"10","11","-1","-9.09090909090909","","Y","LOCF",">140",168,126,141,null,"DAYS",5030],[683,"CDISCPILOT01","701","701","01-701-1148","2013-08-23","2014-02-20","Xanomeline High Dose",81,57,"<65",1,"WHITE",1,"M","Y","Y","Y","Baseline",0,"BASELINE",3,1,"2013-08-23","Word Recall Task","ACITM01",1,"4","4","","","Y","Y","","<=1",1,0,null,1,"DAYS",5001],[684,"CDISCPILOT01","701","701","01-701-1148","2013-08-23","2014-02-20","Xanomeline High Dose",81,57,"<65",1,"WHITE",1,"M","Y","Y","Y","Week 8",8,"WEEK 8",8,57,"2013-10-18","Word Recall Task","ACITM01",1,"4","4","0","0","","Y","","2-84",56,1,2,84,"DAYS",5016],[685,"CDISCPILOT01","701","701","01-701-1148","2013-08-23","2014-02-20","Xanomeline High Dose",81,57,"<65",1,"WHITE",1,"M","Y","Y","Y","Week 16",16,"WEEK 16",10,113,"2013-12-13","Word Recall Task","ACITM01",1,"4","4","0","0","","Y","","85-140",112,1,85,140,"DAYS",5031],[686,"CDISCPILOT01","701","701","01-701-1148","2013-08-23","2014-02-20","Xanomeline High Dose",81,57,"<65",1,"WHITE",1,"M","Y","Y","Y","Week 24",24,"WEEK 24",12,170,"2014-02-08","Word Recall Task","ACITM01",1,"6","4","2","50","","Y","",">140",168,2,141,null,"DAYS",5046],[687,"CDISCPILOT01","701","701","01-701-1148","2013-08-23","2014-02-20","Xanomeline High Dose",81,57,"<65",1,"WHITE",1,"M","Y","Y","Y","Baseline",0,"BASELINE",3,1,"2013-08-23","Naming Objects And Fingers (Refer To 5 C","ACITM02",2,"0","0","","","Y","Y","","<=1",1,0,null,1,"DAYS",5002],[688,"CDISCPILOT01","701","701","01-701-1148","2013-08-23","2014-02-20","Xanomeline High Dose",81,57,"<65",1,"WHITE",1,"M","Y","Y","Y","Week 8",8,"WEEK 8",8,57,"2013-10-18","Naming Objects And Fingers (Refer To 5 C","ACITM02",2,"0","0","0","","","Y","","2-84",56,1,2,84,"DAYS",5017],[689,"CDISCPILOT01","701","701","01-701-1148","2013-08-23","2014-02-20","Xanomeline High Dose",81,57,"<65",1,"WHITE",1,"M","Y","Y","Y","Week 16",16,"WEEK 16",10,113,"2013-12-13","Naming Objects And Fingers (Refer To 5 C","ACITM02",2,"0","0","0","","","Y","","85-140",112,1,85,140,"DAYS",5032],[690,"CDISCPILOT01","701","701","01-701-1148","2013-08-23","2014-02-20","Xanomeline High Dose",81,57,"<65",1,"WHITE",1,"M","Y","Y","Y","Week 24",24,"WEEK 24",12,170,"2014-02-08","Naming Objects And Fingers (Refer To 5 C","ACITM02",2,"0","0","0","","","Y","",">140",168,2,141,null,"DAYS",5047],[691,"CDISCPILOT01","701","701","01-701-1148","2013-08-23","2014-02-20","Xanomeline High Dose",81,57,"<65",1,"WHITE",1,"M","Y","Y","Y","Baseline",0,"BASELINE",3,1,"2013-08-23","Delayed Word Recall","ACITM03",3,"3","3","","","Y","Y","","<=1",1,0,null,1,"DAYS",5003],[692,"CDISCPILOT01","701","701","01-701-1148","2013-08-23","2014-02-20","Xanomeline High Dose",81,57,"<65",1,"WHITE",1,"M","Y","Y","Y","Week 8",8,"WEEK 8",8,57,"2013-10-18","Delayed Word Recall","ACITM03",3,"3","3","0","0","","Y","","2-84",56,1,2,84,"DAYS",5018],[693,"CDISCPILOT01","701","701","01-701-1148","2013-08-23","2014-02-20","Xanomeline High Dose",81,57,"<65",1,"WHITE",1,"M","Y","Y","Y","Week 16",16,"WEEK 16",10,113,"2013-12-13","Delayed Word Recall","ACITM03",3,"4","3","1","33.3333333333333","","Y","","85-140",112,1,85,140,"DAYS",5033],[694,"CDISCPILOT01","701","701","01-701-1148","2013-08-23","2014-02-20","Xanomeline High Dose",81,57,"<65",1,"WHITE",1,"M","Y","Y","Y","Week 24",24,"WEEK 24",12,170,"2014-02-08","Delayed Word Recall","ACITM03",3,"5","3","2","66.6666666666666","","Y","",">140",168,2,141,null,"DAYS",5048],[695,"CDISCPILOT01","701","701","01-701-1148","2013-08-23","2014-02-20","Xanomeline High Dose",81,57,"<65",1,"WHITE",1,"M","Y","Y","Y","Baseline",0,"BASELINE",3,1,"2013-08-23","Commands","ACITM04",4,"0","0","","","Y","Y","","<=1",1,0,null,1,"DAYS",5004],[696,"CDISCPILOT01","701","701","01-701-1148","2013-08-23","2014-02-20","Xanomeline High Dose",81,57,"<65",1,"WHITE",1,"M","Y","Y","Y","Week 8",8,"WEEK 8",8,57,"2013-10-18","Commands","ACITM04",4,"0","0","0","","","Y","","2-84",56,1,2,84,"DAYS",5019],[697,"CDISCPILOT01","701","701","01-701-1148","2013-08-23","2014-02-20","Xanomeline High Dose",81,57,"<65",1,"WHITE",1,"M","Y","Y","Y","Week 16",16,"WEEK 16",10,113,"2013-12-13","Commands","ACITM04",4,"0","0","0","","","Y","","85-140",112,1,85,140,"DAYS",5034],[698,"CDISCPILOT01","701","701","01-701-1148","2013-08-23","2014-02-20","Xanomeline High Dose",81,57,"<65",1,"WHITE",1,"M","Y","Y","Y","Week 24",24,"WEEK 24",12,170,"2014-02-08","Commands","ACITM04",4,"0","0","0","","","Y","",">140",168,2,141,null,"DAYS",5049],[699,"CDISCPILOT01","701","701","01-701-1148","2013-08-23","2014-02-20","Xanomeline High Dose",81,57,"<65",1,"WHITE",1,"M","Y","Y","Y","Baseline",0,"BASELINE",3,1,"2013-08-23","Constructional Praxis","ACITM05",5,"0","0","","","Y","Y","","<=1",1,0,null,1,"DAYS",5005],[700,"CDISCPILOT01","701","701","01-701-1148","2013-08-23","2014-02-20","Xanomeline High Dose",81,57,"<65",1,"WHITE",1,"M","Y","Y","Y","Week 8",8,"WEEK 8",8,57,"2013-10-18","Constructional Praxis","ACITM05",5,"1","0","1","","","Y","","2-84",56,1,2,84,"DAYS",5020],[701,"CDISCPILOT01","701","701","01-701-1148","2013-08-23","2014-02-20","Xanomeline High Dose",81,57,"<65",1,"WHITE",1,"M","Y","Y","Y","Week 16",16,"WEEK 16",10,113,"2013-12-13","Constructional Praxis","ACITM05",5,"2","0","2","","","Y","","85-140",112,1,85,140,"DAYS",5035],[702,"CDISCPILOT01","701","701","01-701-1148","2013-08-23","2014-02-20","Xanomeline High Dose",81,57,"<65",1,"WHITE",1,"M","Y","Y","Y","Week 24",24,"WEEK 24",12,170,"2014-02-08","Constructional Praxis","ACITM05",5,"1","0","1","","","Y","",">140",168,2,141,null,"DAYS",5050],[703,"CDISCPILOT01","701","701","01-701-1148","2013-08-23","2014-02-20","Xanomeline High Dose",81,57,"<65",1,"WHITE",1,"M","Y","Y","Y","Baseline",0,"BASELINE",3,1,"2013-08-23","Ideational Praxis","ACITM06",6,"0","0","","","Y","Y","","<=1",1,0,null,1,"DAYS",5006],[704,"CDISCPILOT01","701","701","01-701-1148","2013-08-23","2014-02-20","Xanomeline High Dose",81,57,"<65",1,"WHITE",1,"M","Y","Y","Y","Week 8",8,"WEEK 8",8,57,"2013-10-18","Ideational Praxis","ACITM06",6,"0","0","0","","","Y","","2-84",56,1,2,84,"DAYS",5021],[705,"CDISCPILOT01","701","701","01-701-1148","2013-08-23","2014-02-20","Xanomeline High Dose",81,57,"<65",1,"WHITE",1,"M","Y","Y","Y","Week 16",16,"WEEK 16",10,113,"2013-12-13","Ideational Praxis","ACITM06",6,"0","0","0","","","Y","","85-140",112,1,85,140,"DAYS",5036],[706,"CDISCPILOT01","701","701","01-701-1148","2013-08-23","2014-02-20","Xanomeline High Dose",81,57,"<65",1,"WHITE",1,"M","Y","Y","Y","Week 24",24,"WEEK 24",12,170,"2014-02-08","Ideational Praxis","ACITM06",6,"0","0","0","","","Y","",">140",168,2,141,null,"DAYS",5051],[707,"CDISCPILOT01","701","701","01-701-1148","2013-08-23","2014-02-20","Xanomeline High Dose",81,57,"<65",1,"WHITE",1,"M","Y","Y","Y","Baseline",0,"BASELINE",3,1,"2013-08-23","Orientation","ACITM07",7,"0","0","","","Y","Y","","<=1",1,0,null,1,"DAYS",5007],[708,"CDISCPILOT01","701","701","01-701-1148","2013-08-23","2014-02-20","Xanomeline High Dose",81,57,"<65",1,"WHITE",1,"M","Y","Y","Y","Week 8",8,"WEEK 8",8,57,"2013-10-18","Orientation","ACITM07",7,"0","0","0","","","Y","","2-84",56,1,2,84,"DAYS",5022],[709,"CDISCPILOT01","701","701","01-701-1148","2013-08-23","2014-02-20","Xanomeline High Dose",81,57,"<65",1,"WHITE",1,"M","Y","Y","Y","Week 16",16,"WEEK 16",10,113,"2013-12-13","Orientation","ACITM07",7,"0","0","0","","","Y","","85-140",112,1,85,140,"DAYS",5037],[710,"CDISCPILOT01","701","701","01-701-1148","2013-08-23","2014-02-20","Xanomeline High Dose",81,57,"<65",1,"WHITE",1,"M","Y","Y","Y","Week 24",24,"WEEK 24",12,170,"2014-02-08","Orientation","ACITM07",7,"0","0","0","","","Y","",">140",168,2,141,null,"DAYS",5052],[711,"CDISCPILOT01","701","701","01-701-1148","2013-08-23","2014-02-20","Xanomeline High Dose",81,57,"<65",1,"WHITE",1,"M","Y","Y","Y","Baseline",0,"BASELINE",3,1,"2013-08-23","Word Recognition","ACITM08",8,"1","1","","","Y","Y","","<=1",1,0,null,1,"DAYS",5008],[712,"CDISCPILOT01","701","701","01-701-1148","2013-08-23","2014-02-20","Xanomeline High Dose",81,57,"<65",1,"WHITE",1,"M","Y","Y","Y","Week 8",8,"WEEK 8",8,57,"2013-10-18","Word Recognition","ACITM08",8,"1","1","0","0","","Y","","2-84",56,1,2,84,"DAYS",5023],[713,"CDISCPILOT01","701","701","01-701-1148","2013-08-23","2014-02-20","Xanomeline High Dose",81,57,"<65",1,"WHITE",1,"M","Y","Y","Y","Week 16",16,"WEEK 16",10,113,"2013-12-13","Word Recognition","ACITM08",8,"0","1","-1","-100","","Y","","85-140",112,1,85,140,"DAYS",5038],[714,"CDISCPILOT01","701","701","01-701-1148","2013-08-23","2014-02-20","Xanomeline High Dose",81,57,"<65",1,"WHITE",1,"M","Y","Y","Y","Week 24",24,"WEEK 24",12,170,"2014-02-08","Word Recognition","ACITM08",8,"0","1","-1","-100","","Y","",">140",168,2,141,null,"DAYS",5053],[715,"CDISCPILOT01","701","701","01-701-1148","2013-08-23","2014-02-20","Xanomeline High Dose",81,57,"<65",1,"WHITE",1,"M","Y","Y","Y","Baseline",0,"BASELINE",3,1,"2013-08-23","Attention/Visual Search Task","ACITM09",9,"29","29","","","Y","Y","","<=1",1,0,null,1,"DAYS",5009],[716,"CDISCPILOT01","701","701","01-701-1148","2013-08-23","2014-02-20","Xanomeline High Dose",81,57,"<65",1,"WHITE",1,"M","Y","Y","Y","Week 8",8,"WEEK 8",8,57,"2013-10-18","Attention/Visual Search Task","ACITM09",9,"27","29","-2","-6.89655172413793","","Y","","2-84",56,1,2,84,"DAYS",5024],[717,"CDISCPILOT01","701","701","01-701-1148","2013-08-23","2014-02-20","Xanomeline High Dose",81,57,"<65",1,"WHITE",1,"M","Y","Y","Y","Week 16",16,"WEEK 16",10,113,"2013-12-13","Attention/Visual Search Task","ACITM09",9,"34","29","5","17.2413793103448","","Y","","85-140",112,1,85,140,"DAYS",5039],[718,"CDISCPILOT01","701","701","01-701-1148","2013-08-23","2014-02-20","Xanomeline High Dose",81,57,"<65",1,"WHITE",1,"M","Y","Y","Y","Week 24",24,"WEEK 24",12,170,"2014-02-08","Attention/Visual Search Task","ACITM09",9,"39","29","10","34.4827586206896","","Y","",">140",168,2,141,null,"DAYS",5054],[719,"CDISCPILOT01","701","701","01-701-1148","2013-08-23","2014-02-20","Xanomeline High Dose",81,57,"<65",1,"WHITE",1,"M","Y","Y","Y","Baseline",0,"BASELINE",3,1,"2013-08-23","Maze Solution","ACITM10",10,"4","4","","","Y","Y","","<=1",1,0,null,1,"DAYS",5010],[720,"CDISCPILOT01","701","701","01-701-1148","2013-08-23","2014-02-20","Xanomeline High Dose",81,57,"<65",1,"WHITE",1,"M","Y","Y","Y","Week 8",8,"WEEK 8",8,57,"2013-10-18","Maze Solution","ACITM10",10,"2","4","-2","-50","","Y","","2-84",56,1,2,84,"DAYS",5025],[721,"CDISCPILOT01","701","701","01-701-1148","2013-08-23","2014-02-20","Xanomeline High Dose",81,57,"<65",1,"WHITE",1,"M","Y","Y","Y","Week 16",16,"WEEK 16",10,113,"2013-12-13","Maze Solution","ACITM10",10,"3","4","-1","-25","","Y","","85-140",112,1,85,140,"DAYS",5040],[722,"CDISCPILOT01","701","701","01-701-1148","2013-08-23","2014-02-20","Xanomeline High Dose",81,57,"<65",1,"WHITE",1,"M","Y","Y","Y","Week 24",24,"WEEK 24",12,170,"2014-02-08","Maze Solution","ACITM10",10,"2","4","-2","-50","","Y","",">140",168,2,141,null,"DAYS",5055],[723,"CDISCPILOT01","701","701","01-701-1148","2013-08-23","2014-02-20","Xanomeline H