{
    "creationDateTime": "2023-06-28T15:38:43",
    "datasetJSONVersion": "1.0.0",
    "fileOID": "www.cdisc.org/StudyMSGv2/1/Define-XML_2.1.0/2023-06-28/dm",
    "asOfDateTime": "2023-05-31T00:00:00",
    "originator": "CDISC SDTM MSG Team",
    "sourceSystem": "Sponsor System",
    "sourceSystemVersion": "1.0",
    "clinicalData": {
        "studyOID": "cdisc.com/CDISCPILOT01",
        "metaDataVersionOID": "MDV.MSGv2.0.SDTMIG.3.3.SDTM.1.7",
        "metaDataRef": "https://metadata.location.org/CDISCPILOT01/define.xml",
        "itemGroupData": {
            "IG.DM": {
                "records": 18,
                "name": "DM",
                "label": "Demographics",
                "items": [
                    {
                        "OID": "ITEMGROUPDATASEQ",
                        "name": "ITEMGROUPDATASEQ",
                        "label": "Record Identifier",
                        "type": "integer"
                    },
                    {
                        "OID": "IT.DM.STUDYID",
                        "name": "STUDYID",
                        "label": "Study Identifier",
                        "type": "string",
                        "length": 12,
                        "keySequence": 1
                    },
                    {
                        "OID": "IT.DM.DOMAIN",
                        "name": "DOMAIN",
                        "label": "Domain Abbreviation",
                        "type": "string",
                        "length": 2
                    },
                    {
                        "OID": "IT.DM.USUBJID",
                        "name": "USUBJID",
                        "label": "Unique Subject Identifier",
                        "type": "string",
                        "length": 8,
                        "keySequence": 2
                    },
                    {
                        "OID": "IT.DM.SUBJID",
                        "name": "SUBJID",
                        "label": "Subject Identifier for the Study",
                        "type": "string",
                        "length": 4
                    },
                    {
                        "OID": "IT.DM.RFSTDTC",
                        "name": "RFSTDTC",
                        "label": "Subject Reference Start Date/Time",
                        "type": "string"
                    },
                    {
                        "OID": "IT.DM.RFENDTC",
                        "name": "RFENDTC",
                        "label": "Subject Reference End Date/Time",
                        "type": "string"
                    },
                    {
                        "OID": "IT.DM.RFXSTDTC",
                        "name": "RFXSTDTC",
                        "label": "Date/Time of First Study Treatment",
                        "type": "string"
                    },
                    {
                        "OID": "IT.DM.RFXENDTC",
                        "name": "RFXENDTC",
                        "label": "Date/Time of Last Study Treatment",
                        "type": "string"
                    },
                    {
                        "OID": "IT.DM.RFICDTC",
                        "name": "RFICDTC",
                        "label": "Date/Time of Informed Consent",
                        "type": "string"
                    },
                    {
                        "OID": "IT.DM.RFPENDTC",
                        "name": "RFPENDTC",
                        "label": "Date/Time of End of Participation",
                        "type": "string"
                    },
                    {
                        "OID": "IT.DM.DTHDTC",
                        "name": "DTHDTC",
                        "label": "Date/Time of Death",
                        "type": "string"
                    },
                    {
                        "OID": "IT.DM.DTHFL",
                        "name": "DTHFL",
                        "label": "Subject Death Flag",
                        "type": "string",
                        "length": 1
                    },
                    {
                        "OID": "IT.DM.SITEID",
                        "name": "SITEID",
                        "label": "Study Site Identifier",
                        "type": "string",
                        "length": 3
                    },
                    {
                        "OID": "IT.DM.BRTHDTC",
                        "name": "BRTHDTC",
                        "label": "Date/Time of Birth",
                        "type": "string"
                    },
                    {
                        "OID": "IT.DM.AGE",
                        "name": "AGE",
                        "label": "Age",
                        "type": "integer",
                        "length": 8
                    },
                    {
                        "OID": "IT.DM.AGEU",
                        "name": "AGEU",
                        "label": "Age Units",
                        "type": "string",
                        "length": 5
                    },
                    {
                        "OID": "IT.DM.SEX",
                        "name": "SEX",
                        "label": "Sex",
                        "type": "string",
                        "length": 1
                    },
                    {
                        "OID": "IT.DM.RACE",
                        "name": "RACE",
                        "label": "Race",
                        "type": "string",
                        "length": 41
                    },
                    {
                        "OID": "IT.DM.ETHNIC",
                        "name": "ETHNIC",
                        "label": "Ethnicity",
                        "type": "string",
                        "length": 22
                    },
                    {
                        "OID": "IT.DM.ARMCD",
                        "name": "ARMCD",
                        "label": "Planned Arm Code",
                        "type": "string",
                        "length": 8
                    },
                    {
                        "OID": "IT.DM.ARM",
                        "name": "ARM",
                        "label": "Description of Planned Arm",
                        "type": "string",
                        "length": 28
                    },
                    {
                        "OID": "IT.DM.ACTARMCD",
                        "name": "ACTARMCD",
                        "label": "Actual Arm Code",
                        "type": "string",
                        "length": 8
                    },
                    {
                        "OID": "IT.DM.ACTARM",
                        "name": "ACTARM",
                        "label": "Description of Actual Arm",
                        "type": "string",
                        "length": 28
                    },
                    {
                        "OID": "IT.DM.ARMNRS",
                        "name": "ARMNRS",
                        "label": "Reason Arm and/or Actual Arm is Null",
                        "type": "string",
                        "length": 14
                    },
                    {
                        "OID": "IT.DM.ACTARMUD",
                        "name": "ACTARMUD",
                        "label": "Description of Unplanned Actual Arm",
                        "type": "string",
                        "length": 200
                    },
                    {
                        "OID": "IT.DM.COUNTRY",
                        "name": "COUNTRY",
                        "label": "Country",
                        "type": "string",
                        "length": 3
                    }
                ]
            }
        }
    }
}