{"fileOID":"www.cdisc.org/StudyMSGv2/1/Define-XML_2.1.0/2023-06-21/cm","creationDateTime":"2023-06-21T21:29:49","asOfDateTime":"2023-05-31T00:00:00","datasetJSONVersion":"1.0.0","originator":"CDISC SDTM MSG Team","sourceSystem":"Sponsor System","sourceSystemVersion":"1.0","clinicalData":{"studyOID":"cdisc.com/CDISCPILOT01","metaDataVersionOID":"MDV.MSGv2.0.SDTMIG.3.3.SDTM.1.7","metaDataRef":"https://metadata.location.org/CDISCPILOT01/define.xml","itemGroupData":{"IG.CM":{"records":68,"name":"CM","label":"Concomitant Medications","items":[{"OID":"ITEMGROUPDATASEQ","name":"ITEMGROUPDATASEQ","label":"Record Identifier","type":"integer"},{"OID":"IT.CM.STUDYID","name":"STUDYID","label":"Study Identifier","type":"string","length":12},{"OID":"IT.CM.DOMAIN","name":"DOMAIN","label":"Domain Abbreviation","type":"string","length":2},{"OID":"IT.CM.USUBJID","name":"USUBJID","label":"Unique Subject Identifier","type":"string","length":8},{"OID":"IT.CM.CMSEQ","name":"CMSEQ","label":"Sequence Number","type":"float","length":8},{"OID":"IT.CM.CMTRT","name":"CMTRT","label":"Reported Name of Drug, Med, or Therapy","type":"string","length":200},{"OID":"IT.CM.CMINDC","name":"CMINDC","label":"Indication","type":"string","length":200},{"OID":"IT.CM.CMDOSE","name":"CMDOSE","label":"Dose per Administration","type":"float","length":8},{"OID":"IT.CM.CMDOSU","name":"CMDOSU","label":"Dose Units","type":"string","length":6},{"OID":"IT.CM.CMDOSFRQ","name":"CMDOSFRQ","label":"Dosing Frequency per Interval","type":"string","length":3},{"OID":"IT.CM.CMROUTE","name":"CMROUTE","label":"Route of Administration","type":"string","length":24},{"OID":"IT.CM.EPOCH","name":"EPOCH","label":"Epoch","type":"string","length":9},{"OID":"IT.CM.CMSTDTC","name":"CMSTDTC","label":"Start Date/Time of Medication","type":"string","length":10},{"OID":"IT.CM.CMENDTC","name":"CMENDTC","label":"End Date/Time of Medication","type":"string","length":10},{"OID":"IT.CM.CMSTDY","name":"CMSTDY","label":"Study Day of Start of Medication","type":"float","length":8},{"OID":"IT.CM.CMENDY","name":"CMENDY","label":"Study Day of End of Medication","type":"float","length":8},{"OID":"IT.CM.CMENRTPT","name":"CMENRTPT","label":"End Relative to Reference Time Point","type":"string","length":7},{"OID":"IT.CM.CMENTPT","name":"CMENTPT","label":"End Reference Time Point","type":"string","length":10}],"itemData":[[1,"CDISCPILOT01","CM","CDISC001",1,"ASPIRIN","PROPHYLAXIS OR NON-THERAPEUTIC USE",1,"TABLET","QD","ORAL","SCREENING","2011","2013-04-29",null,151,"",""],[2,"CDISCPILOT01","CM","CDISC001",2,"METAMUCIL","PROPHYLAXIS OR NON-THERAPEUTIC USE",1,"TABLET","PRN","ORAL","SCREENING","2012-08","",null,null,"ONGOING","2013-05-20"],[3,"CDISCPILOT01","CM","CDISC001",3,"HYDROCORTISONE, TOPICAL","PROPHYLAXIS OR NON-THERAPEUTIC USE",1,"TABLET","BID","TOPICAL","TREATMENT","2013-01-11","",43,null,"ONGOING","2013-05-20"],[4,"CDISCPILOT01","CM","CDISC001",4,"HYTRIN","PROPHYLAXIS OR NON-THERAPEUTIC USE",2,"TABLET","Q4H","ORAL","TREATMENT","2013-04-19","2013-05-14",141,166,"",""],[5,"CDISCPILOT01","CM","CDISC001",5,"ASPIRIN","PROPHYLAXIS OR NON-THERAPEUTIC USE",80,"mg","QID","ORAL","TREATMENT","2013-04-29","",151,null,"ONGOING","2013-05-20"],[6,"CDISCPILOT01","CM","CDISC001",6,"FEOSOL","PROPHYLAXIS OR NON-THERAPEUTIC USE",325,"mg","Q6H","ORAL","TREATMENT","2013-04-29","",151,null,"ONGOING","2013-05-20"],[7,"CDISCPILOT01","CM","CDISC001",7,"PRAVACHOL","PROPHYLAXIS OR NON-THERAPEUTIC USE",20,"mg","","ORAL","TREATMENT","2013-05-08","",160,null,"ONGOING","2013-05-20"],[8,"CDISCPILOT01","CM","CDISC002",1,"DEMEROL","PROPHYLAXIS OR NON-THERAPEUTIC USE",50,"mg","","INTRAVENOUS","TREATMENT","2012-11-21","2012-11-21",7,7,"",""],[9,"CDISCPILOT01","CM","CDISC002",2,"TYLENOL W/CODEINE NO. 3","PROPHYLAXIS OR NON-THERAPEUTIC USE",2,"TABLET","","ORAL","TREATMENT","2012-11-21","2012-11-21",7,7,"",""],[10,"CDISCPILOT01","CM","CDISC002",3,"HYDROCORTISONE","PROPHYLAXIS OR NON-THERAPEUTIC USE",1,"TABLET","","TOPICAL","TREATMENT","2012-12-08","2013-01-14",24,61,"",""],[11,"CDISCPILOT01","CM","CDISC002",4,"LOMOTIL","PROPHYLAXIS OR NON-THERAPEUTIC USE",2.5,"mg","","ORAL","TREATMENT","2013-01-04","2013-01-04",51,51,"",""],[12,"CDISCPILOT01","CM","CDISC002",5,"MYLANTA","PROPHYLAXIS OR NON-THERAPEUTIC USE",1,"TABLET","","ORAL","TREATMENT","2013-01-05","2013-01-14",52,61,"",""],[13,"CDISCPILOT01","CM","CDISC003",1,"ADVIL","PROPHYLAXIS OR NON-THERAPEUTIC USE",2,"TABLET","","ORAL","SCREENING","2010","",null,null,"ONGOING","2014-02-13"],[14,"CDISCPILOT01","CM","CDISC003",2,"MULTIVITAMINS","PROPHYLAXIS OR NON-THERAPEUTIC USE",1,"TABLET","","ORAL","SCREENING","2010","",null,null,"ONGOING","2014-02-13"],[15,"CDISCPILOT01","CM","CDISC003",3,"EXCEDRIN","PROPHYLAXIS OR NON-THERAPEUTIC USE",2,"TABLET","","ORAL","SCREENING","2011","",null,null,"ONGOING","2014-02-13"],[16,"CDISCPILOT01","CM","CDISC003",4,"METAMUCIL","PROPHYLAXIS OR NON-THERAPEUTIC USE",2,"TABLET","","ORAL","SCREENING","2012-03-01","",-546,null,"ONGOING","2014-02-13"],[17,"CDISCPILOT01","CM","CDISC003",5,"NEO-SYNEPHRINE","PROPHYLAXIS OR NON-THERAPEUTIC USE",1,"TABLET","","NASAL","TREATMENT","2013-09-01","2013-09-30",4,33,"",""],[18,"CDISCPILOT01","CM","CDISC003",6,"PSEUDOEPHEDRINE HYDROCHLORIDE","PROPHYLAXIS OR NON-THERAPEUTIC USE",2,"TABLET","","ORAL","TREATMENT","2013-09-02","2013-09-30",5,33,"",""],[19,"CDISCPILOT01","CM","CDISC004",1,"VITAMIN C","PROPHYLAXIS OR NON-THERAPEUTIC USE",500,"mg","","ORAL","SCREENING","1983","",null,null,"ONGOING","2014-03-18"],[20,"CDISCPILOT01","CM","CDISC004",2,"VITAMIN E","PROPHYLAXIS OR NON-THERAPEUTIC USE",400,"mg","","ORAL","SCREENING","1983","",null,null,"ONGOING","2014-03-18"],[21,"CDISCPILOT01","CM","CDISC005",1,"CENTRUM SILVER","PROPHYLAXIS OR NON-THERAPEUTIC USE",1,"TABLET","","ORAL","SCREENING","2012-03","",null,null,"ONGOING","2013-08-06"],[22,"CDISCPILOT01","CM","CDISC005",2,"CEPHALEXIN","PROPHYLAXIS OR NON-THERAPEUTIC USE",500,"mg","","ORAL","TREATMENT","2013-07-19","2013-08-01",166,179,"",""],[23,"CDISCPILOT01","CM","CDISC005",3,"PROMETHAZINE HCL W/CODEINE","PROPHYLAXIS OR NON-THERAPEUTIC USE",2,"TABLET","","ORAL","TREATMENT","2013-07-19","2013-07-25",166,172,"",""],[24,"CDISCPILOT01","CM","CDISC005",4,"HYDROCORTISONE","PROPHYLAXIS OR NON-THERAPEUTIC USE",1,"TABLET","","TOPICAL","TREATMENT","2013-05-14","",100,null,"ONGOING","2013-08-06"],[25,"CDISCPILOT01","CM","CDISC007",1,"METAMUCIL","PROPHYLAXIS OR NON-THERAPEUTIC USE",3,"mg","","ORAL","SCREENING","2009","",null,null,"ONGOING","2013-06-20"],[26,"CDISCPILOT01","CM","CDISC007",2,"ADVIL","PROPHYLAXIS OR NON-THERAPEUTIC USE",200,"mg","","ORAL","SCREENING","2011","",null,null,"ONGOING","2013-06-20"],[27,"CDISCPILOT01","CM","CDISC007",3,"DOCUSATE SODIUM","PROPHYLAXIS OR NON-THERAPEUTIC USE",100,"mg","","ORAL","SCREENING","2012-11","2013-01-05",null,1,"",""],[28,"CDISCPILOT01","CM","CDISC007",4,"BENADRYL","PROPHYLAXIS OR NON-THERAPEUTIC USE",75,"mg","","ORAL","SCREENING","2013-02-18","2013-05-10",45,126,"",""],[29,"CDISCPILOT01","CM","CDISC007",5,"PREDNISONE","PROPHYLAXIS OR NON-THERAPEUTIC USE",20,"mg","","ORAL","SCREENING","2013-02-18","2013-05-10",45,126,"",""],[30,"CDISCPILOT01","CM","CDISC007",6,"TEMOVATE","PROPHYLAXIS OR NON-THERAPEUTIC USE",1,"TABLET","","TOPICAL","SCREENING","2013-02-18","2013-02-20",45,47,"",""],[31,"CDISCPILOT01","CM","CDISC008",1,"ATROVENT","PROPHYLAXIS OR NON-THERAPEUTIC USE",1,"TABLET","","RESPIRATORY (INHALATION)","SCREENING","2007","2014-10-31",null,174,"",""],[32,"CDISCPILOT01","CM","CDISC008",2,"VENTOLIN","PROPHYLAXIS OR NON-THERAPEUTIC USE",1,"TABLET","","RESPIRATORY (INHALATION)","SCREENING","2007","2014-10-31",null,174,"",""],[33,"CDISCPILOT01","CM","CDISC008",3,"CARDURA","PROPHYLAXIS OR NON-THERAPEUTIC USE",1,"TABLET","","ORAL","SCREENING","2012-09","2014-10-31",null,174,"",""],[34,"CDISCPILOT01","CM","CDISC008",4,"AEROBID","PROPHYLAXIS OR NON-THERAPEUTIC USE",1,"TABLET","","RESPIRATORY (INHALATION)","SCREENING","2013-09","2014-10-31",null,174,"",""],[35,"CDISCPILOT01","CM","CDISC008",5,"VITAMIN E","PROPHYLAXIS OR NON-THERAPEUTIC USE",400,"mg","","ORAL","SCREENING","2014-01","2014-10-31",null,174,"",""],[36,"CDISCPILOT01","CM","CDISC009",1,"TYLENOL","PROPHYLAXIS OR NON-THERAPEUTIC USE",325,"mg","","ORAL","SCREENING","1996","",null,null,"ONGOING","2013-04-28"],[37,"CDISCPILOT01","CM","CDISC009",2,"NORVASC","PROPHYLAXIS OR NON-THERAPEUTIC USE",2.5,"mg","","ORAL","SCREENING","2010-07","",null,null,"ONGOING","2013-04-28"],[38,"CDISCPILOT01","CM","CDISC009",3,"LORAZEPAM","PRIMARY STUDY CONDITION",0.5,"mg","","ORAL","TREATMENT","2012-11-20","2012-11-24",30,34,"",""],[39,"CDISCPILOT01","CM","CDISC010",1,"MECLIZINE","PROPHYLAXIS OR NON-THERAPEUTIC USE",25,"mg","","ORAL","SCREENING","1983","2013-09-08",null,-13,"",""],[40,"CDISCPILOT01","CM","CDISC010",2,"CAPOTEN","PROPHYLAXIS OR NON-THERAPEUTIC USE",50,"mg","","ORAL","SCREENING","1998","2013-09-15",null,-6,"",""],[41,"CDISCPILOT01","CM","CDISC010",3,"POTASSIUM","PROPHYLAXIS OR NON-THERAPEUTIC USE",1,"TABLET","","ORAL","SCREENING","1998","",null,null,"ONGOING","2013-09-26"],[42,"CDISCPILOT01","CM","CDISC010",4,"PRILOSEC","PROPHYLAXIS OR NON-THERAPEUTIC USE",20,"mg","","ORAL","SCREENING","2009","",null,null,"ONGOING","2013-09-26"],[43,"CDISCPILOT01","CM","CDISC010",5,"PROPULSID","PROPHYLAXIS OR NON-THERAPEUTIC USE",10,"mg","","ORAL","SCREENING","2009","",null,null,"ONGOING","2013-09-26"],[44,"CDISCPILOT01","CM","CDISC010",6,"LANOXIN","PROPHYLAXIS OR NON-THERAPEUTIC USE",0.05,"mg","","ORAL","SCREENING","2011-06","",null,null,"ONGOING","2013-09-26"],[45,"CDISCPILOT01","CM","CDISC010",7,"ZESTORETIC","PROPHYLAXIS OR NON-THERAPEUTIC USE",1,"TABLET","","ORAL","SCREENING","2013-09-15","",-6,null,"ONGOING","2013-09-26"],[46,"CDISCPILOT01","CM","CDISC011",1,"MOTRIN","PROPHYLAXIS OR NON-THERAPEUTIC USE",400,"mg","","ORAL","SCREENING","1998-10","2013-06-05",null,181,"",""],[47,"CDISCPILOT01","CM","CDISC011",2,"PRINIVIL","PROPHYLAXIS OR NON-THERAPEUTIC USE",10,"mg","","ORAL","SCREENING","2011-07-15","2013-06-05",-511,181,"",""],[48,"CDISCPILOT01","CM","CDISC011",3,"HYDROCORTISONE, TOPICAL","PROPHYLAXIS OR NON-THERAPEUTIC USE",1,"TABLET","","TRANSDERMAL","SCREENING","2013-04-10","2013-06-05",125,181,"",""],[49,"CDISCPILOT01","CM","CDISC011",4,"CALAMINE LOTION","PROPHYLAXIS OR NON-THERAPEUTIC USE",null,"ng","","TRANSDERMAL","SCREENING","2013-04-23","2013-06-05",138,181,"",""],[50,"CDISCPILOT01","CM","CDISC014",1,"ASPIRIN","PROPHYLAXIS OR NON-THERAPEUTIC USE",325,"mg","","ORAL","SCREENING","2012-07","",null,null,"ONGOING","2013-09-18"],[51,"CDISCPILOT01","CM","CDISC014",2,"DYAZIDE","PROPHYLAXIS OR NON-THERAPEUTIC USE",37.5,"mg","","ORAL","SCREENING","2013-03-02","",-32,null,"ONGOING","2013-09-18"],[52,"CDISCPILOT01","CM","CDISC014",3,"TYLENOL","PROPHYLAXIS OR NON-THERAPEUTIC USE",325,"mg","","ORAL","SCREENING","2013-04-01","2013-04-15",-2,13,"",""],[53,"CDISCPILOT01","CM","CDISC014",4,"AMOXICILLIN","PROPHYLAXIS OR NON-THERAPEUTIC USE",500,"mg","","ORAL","SCREENING","2013-05-01","",29,null,"ONGOING","2013-09-18"],[54,"CDISCPILOT01","CM","CDISC014",5,"BENZONATATE","PROPHYLAXIS OR NON-THERAPEUTIC USE",100,"mg","","ORAL","SCREENING","2013-05-01","",29,null,"ONGOING","2013-09-18"],[55,"CDISCPILOT01","CM","CDISC016",1,"PREMARIN","PROPHYLAXIS OR NON-THERAPEUTIC USE",0.625,"mg","","ORAL","SCREENING","1989","",null,null,"ONGOING","2013-09-22"],[56,"CDISCPILOT01","CM","CDISC016",2,"SYNTHROID","PROPHYLAXIS OR NON-THERAPEUTIC USE",0.15,"mg","","ORAL","SCREENING","2009-03-03","2013-05-20",-1492,48,"",""],[57,"CDISCPILOT01","CM","CDISC016",3,"ROBITUSSIN","PROPHYLAXIS OR NON-THERAPEUTIC USE",2,"TABLET","","ORAL","TREATMENT","2013-04-28","2013-05-04",26,32,"",""],[58,"CDISCPILOT01","CM","CDISC016",4,"ARMOUR THYROID","PROPHYLAXIS OR NON-THERAPEUTIC USE",2,"TABLET","","ORAL","SCREENING","2013-05-21","",49,null,"ONGOING","2013-09-22"],[59,"CDISCPILOT01","CM","CDISC017",1,"ACETAMINOPHEN","PROPHYLAXIS OR NON-THERAPEUTIC USE",2,"TABLET","","ORAL","SCREENING","2008","",null,null,"ONGOING","2014-03-08"],[60,"CDISCPILOT01","CM","CDISC017",2,"MULTIVITAMIN","PROPHYLAXIS OR NON-THERAPEUTIC USE",1,"TABLET","","ORAL","SCREENING","2011-08","",null,null,"ONGOING","2014-03-08"],[61,"CDISCPILOT01","CM","CDISC017",3,"VITAMIN E","PROPHYLAXIS OR NON-THERAPEUTIC USE",400,"mg","","ORAL","SCREENING","2011-08","",null,null,"ONGOING","2014-03-08"],[62,"CDISCPILOT01","CM","CDISC017",4,"CALAMINE LOTION","PROPHYLAXIS OR NON-THERAPEUTIC USE",null,"","","TOPICAL","TREATMENT","2013-12-29","2014-02-01",100,134,"",""],[63,"CDISCPILOT01","CM","CDISC017",5,"CORTISONE","PROPHYLAXIS OR NON-THERAPEUTIC USE",null,"","","TOPICAL","TREATMENT","2013-12-29","2014-02-01",100,134,"",""],[64,"CDISCPILOT01","CM","CDISC018",1,"MULTIVITAMINS","PROPHYLAXIS OR NON-THERAPEUTIC USE",1,"TABLET","","ORAL","SCREENING","2002-08","",null,null,"ONGOING","2013-06-03"],[65,"CDISCPILOT01","CM","CDISC018",2,"ADVIL","PROPHYLAXIS OR NON-THERAPEUTIC USE",400,"mg","","ORAL","TREATMENT","2012-12-30","2012-12-30",14,14,"",""],[66,"CDISCPILOT01","CM","CDISC018",3,"MYLANTA","PROPHYLAXIS OR NON-THERAPEUTIC USE",1,"TABLET","","ORAL","TREATMENT","2013-01-16","2013-01-16",31,31,"",""],[67,"CDISCPILOT01","CM","CDISC018",4,"MYLANTA","PROPHYLAXIS OR NON-THERAPEUTIC USE",1,"TABLET","","ORAL","TREATMENT","2013-01-21","2013-01-24",36,39,"",""],[68,"CDISCPILOT01","CM","CDISC018",5,"CALAMINE LOTION","PROPHYLAXIS OR NON-THERAPEUTIC USE",null,"","","TOPICAL","TREATMENT","2013-01-27","2013-01-27",42,42,"",""]]}}}}