{"fileOID":"www.cdisc.org/StudyMSGv2/1/Define-XML_2.1.0/2023-06-21/ft","creationDateTime":"2023-06-21T21:29:50","asOfDateTime":"2023-05-31T00:00:00","datasetJSONVersion":"1.0.0","originator":"CDISC SDTM MSG Team","sourceSystem":"Sponsor System","sourceSystemVersion":"1.0","clinicalData":{"studyOID":"cdisc.com/CDISCPILOT01","metaDataVersionOID":"MDV.MSGv2.0.SDTMIG.3.3.SDTM.1.7","metaDataRef":"https://metadata.location.org/CDISCPILOT01/define.xml","itemGroupData":{"IG.FT":{"records":4488,"name":"FT","label":"Functional Tests","items":[{"OID":"ITEMGROUPDATASEQ","name":"ITEMGROUPDATASEQ","label":"Record Identifier","type":"integer"},{"OID":"IT.FT.STUDYID","name":"STUDYID","label":"Study Identifier","type":"string","length":12},{"OID":"IT.FT.DOMAIN","name":"DOMAIN","label":"Domain Abbreviation","type":"string","length":2},{"OID":"IT.FT.USUBJID","name":"USUBJID","label":"Unique Subject Identifier","type":"string","length":8},{"OID":"IT.FT.FTSEQ","name":"FTSEQ","label":"Sequence Number","type":"float","length":8},{"OID":"IT.FT.FTTESTCD","name":"FTTESTCD","label":"Short Name of Test","type":"string","length":7},{"OID":"IT.FT.FTTEST","name":"FTTEST","label":"Name of Test","type":"string","length":23},{"OID":"IT.FT.FTCAT","name":"FTCAT","label":"Category","type":"string","length":8},{"OID":"IT.FT.FTSCAT","name":"FTSCAT","label":"Subcategory","type":"string","length":200},{"OID":"IT.FT.FTORRES","name":"FTORRES","label":"Result or Finding in Original Units","type":"string","length":12},{"OID":"IT.FT.FTSTRESC","name":"FTSTRESC","label":"Result or Finding in Standard Format","type":"string","length":200},{"OID":"IT.FT.FTSTRESN","name":"FTSTRESN","label":"Numeric Result/Finding in Standard Units","type":"float","length":8},{"OID":"IT.FT.FTLOBXFL","name":"FTLOBXFL","label":"Last Observation Before Exposure Flag","type":"string","length":1},{"OID":"IT.FT.FTREPNUM","name":"FTREPNUM","label":"Repetition Number","type":"float","length":8},{"OID":"IT.FT.VISITNUM","name":"VISITNUM","label":"Visit Number","type":"float","length":8},{"OID":"IT.FT.VISIT","name":"VISIT","label":"Visit Name","type":"string","length":200},{"OID":"IT.FT.EPOCH","name":"EPOCH","label":"Epoch","type":"string","length":9},{"OID":"IT.FT.FTDTC","name":"FTDTC","label":"Date/Time of Test","type":"string","length":19},{"OID":"IT.FT.FTDY","name":"FTDY","label":"Study Day of Test","type":"float","length":8},{"OID":"IT.FT.FTTPT","name":"FTTPT","label":"Planned Time Point Name","type":"string","length":200},{"OID":"IT.FT.FTTPTNUM","name":"FTTPTNUM","label":"Planned Time Point Number","type":"float","length":8},{"OID":"IT.FT.FTELTM","name":"FTELTM","label":"Planned Elapsed Time from Time Point Ref","type":"string","length":200},{"OID":"IT.FT.FTTPTREF","name":"FTTPTREF","label":"Time Point Reference","type":"string","length":200}],"itemData":[[1,"CDISCPILOT01","FT","CDISC001",1,"AVL0201","AVL02-List A Word 1","AVLT-REY","FORM 1","RECALLED","RECALLED",null,"Y",1,2,"SCREENING 2","SCREENING","2012-11-28T12:00",-2,"",null,"",""],[2,"CDISCPILOT01","FT","CDISC001",2,"AVL0202","AVL02-List A Word 2","AVLT-REY","FORM 1","RECALLED","RECALLED",null,"Y",1,2,"SCREENING 2","SCREENING","2012-11-28T12:00",-2,"",null,"",""],[3,"CDISCPILOT01","FT","CDISC001",3,"AVL0203","AVL02-List A Word 3","AVLT-REY","FORM 1","NOT RECALLED","NOT RECALLED",null,"Y",1,2,"SCREENING 2","SCREENING","2012-11-28T12:00",-2,"",null,"",""],[4,"CDISCPILOT01","FT","CDISC001",4,"AVL0204","AVL02-List A Word 4","AVLT-REY","FORM 1","RECALLED","RECALLED",null,"Y",1,2,"SCREENING 2","SCREENING","2012-11-28T12:00",-2,"",null,"",""],[5,"CDISCPILOT01","FT","CDISC001",5,"AVL0205","AVL02-List A Word 5","AVLT-REY","FORM 1","RECALLED","RECALLED",null,"Y",1,2,"SCREENING 2","SCREENING","2012-11-28T12:00",-2,"",null,"",""],[6,"CDISCPILOT01","FT","CDISC001",6,"AVL0206","AVL02-List A Word 6","AVLT-REY","FORM 1","NOT RECALLED","NOT RECALLED",null,"Y",1,2,"SCREENING 2","SCREENING","2012-11-28T12:00",-2,"",null,"",""],[7,"CDISCPILOT01","FT","CDISC001",7,"AVL0207","AVL02-List A Word 7","AVLT-REY","FORM 1","RECALLED","RECALLED",null,"Y",1,2,"SCREENING 2","SCREENING","2012-11-28T12:00",-2,"",null,"",""],[8,"CDISCPILOT01","FT","CDISC001",8,"AVL0208","AVL02-List A Word 8","AVLT-REY","FORM 1","NOT RECALLED","NOT RECALLED",null,"Y",1,2,"SCREENING 2","SCREENING","2012-11-28T12:00",-2,"",null,"",""],[9,"CDISCPILOT01","FT","CDISC001",9,"AVL0209","AVL02-List A Word 9","AVLT-REY","FORM 1","NOT RECALLED","NOT RECALLED",null,"Y",1,2,"SCREENING 2","SCREENING","2012-11-28T12:00",-2,"",null,"",""],[10,"CDISCPILOT01","FT","CDISC001",10,"AVL0210","AVL02-List A Word 10","AVLT-REY","FORM 1","NOT RECALLED","NOT RECALLED",null,"Y",1,2,"SCREENING 2","SCREENING","2012-11-28T12:00",-2,"",null,"",""],[11,"CDISCPILOT01","FT","CDISC001",11,"AVL0211","AVL02-List A Word 11","AVLT-REY","FORM 1","NOT RECALLED","NOT RECALLED",null,"Y",1,2,"SCREENING 2","SCREENING","2012-11-28T12:00",-2,"",null,"",""],[12,"CDISCPILOT01","FT","CDISC001",12,"AVL0212","AVL02-List A Word 12","AVLT-REY","FORM 1","NOT RECALLED","NOT RECALLED",null,"Y",1,2,"SCREENING 2","SCREENING","2012-11-28T12:00",-2,"",null,"",""],[13,"CDISCPILOT01","FT","CDISC001",13,"AVL0213","AVL02-List A Word 13","AVLT-REY","FORM 1","NOT RECALLED","NOT RECALLED",null,"Y",1,2,"SCREENING 2","SCREENING","2012-11-28T12:00",-2,"",null,"",""],[14,"CDISCPILOT01","FT","CDISC001",14,"AVL0214","AVL02-List A Word 14","AVLT-REY","FORM 1","NOT RECALLED","NOT RECALLED",null,"Y",1,2,"SCREENING 2","SCREENING","2012-11-28T12:00",-2,"",null,"",""],[15,"CDISCPILOT01","FT","CDISC001",15,"AVL0215","AVL02-List A Word 15","AVLT-REY","FORM 1","NOT RECALLED","NOT RECALLED",null,"Y",1,2,"SCREENING 2","SCREENING","2012-11-28T12:00",-2,"",null,"",""],[16,"CDISCPILOT01","FT","CDISC001",16,"AVL0216","AVL02-List A Total","AVLT-REY","FORM 1","5","5",5,"Y",1,2,"SCREENING 2","SCREENING","2012-11-28T12:00",-2,"",null,"",""],[17,"CDISCPILOT01","FT","CDISC001",17,"AVL0217","AVL02-List A Intrusions","AVLT-REY","FORM 1","2","2",2,"Y",1,2,"SCREENING 2","SCREENING","2012-11-28T12:00",-2,"",null,"",""],[18,"CDISCPILOT01","FT","CDISC001",18,"AVL0201","AVL02-List A Word 1","AVLT-REY","FORM 1","RECALLED","RECALLED",null,"Y",2,2,"SCREENING 2","SCREENING","2012-11-28T12:05",-2,"",null,"",""],[19,"CDISCPILOT01","FT","CDISC001",19,"AVL0202","AVL02-List A Word 2","AVLT-REY","FORM 1","RECALLED","RECALLED",null,"Y",2,2,"SCREENING 2","SCREENING","2012-11-28T12:05",-2,"",null,"",""],[20,"CDISCPILOT01","FT","CDISC001",20,"AVL0203","AVL02-List A Word 3","AVLT-REY","FORM 1","NOT RECALLED","NOT RECALLED",null,"Y",2,2,"SCREENING 2","SCREENING","2012-11-28T12:05",-2,"",null,"",""],[21,"CDISCPILOT01","FT","CDISC001",21,"AVL0204","AVL02-List A Word 4","AVLT-REY","FORM 1","RECALLED","RECALLED",null,"Y",2,2,"SCREENING 2","SCREENING","2012-11-28T12:05",-2,"",null,"",""],[22,"CDISCPILOT01","FT","CDISC001",22,"AVL0205","AVL02-List A Word 5","AVLT-REY","FORM 1","RECALLED","RECALLED",null,"Y",2,2,"SCREENING 2","SCREENING","2012-11-28T12:05",-2,"",null,"",""],[23,"CDISCPILOT01","FT","CDISC001",23,"AVL0206","AVL02-List A Word 6","AVLT-REY","FORM 1","NOT RECALLED","NOT RECALLED",null,"Y",2,2,"SCREENING 2","SCREENING","2012-11-28T12:05",-2,"",null,"",""],[24,"CDISCPILOT01","FT","CDISC001",24,"AVL0207","AVL02-List A Word 7","AVLT-REY","FORM 1","RECALLED","RECALLED",null,"Y",2,2,"SCREENING 2","SCREENING","2012-11-28T12:05",-2,"",null,"",""],[25,"CDISCPILOT01","FT","CDISC001",25,"AVL0208","AVL02-List A Word 8","AVLT-REY","FORM 1","RECALLED","RECALLED",null,"Y",2,2,"SCREENING 2","SCREENING","2012-11-28T12:05",-2,"",null,"",""],[26,"CDISCPILOT01","FT","CDISC001",26,"AVL0209","AVL02-List A Word 9","AVLT-REY","FORM 1","NOT RECALLED","NOT RECALLED",null,"Y",2,2,"SCREENING 2","SCREENING","2012-11-28T12:05",-2,"",null,"",""],[27,"CDISCPILOT01","FT","CDISC001",27,"AVL0210","AVL02-List A Word 10","AVLT-REY","FORM 1","NOT RECALLED","NOT RECALLED",null,"Y",2,2,"SCREENING 2","SCREENING","2012-11-28T12:05",-2,"",null,"",""],[28,"CDISCPILOT01","FT","CDISC001",28,"AVL0211","AVL02-List A Word 11","AVLT-REY","FORM 1","NOT RECALLED","NOT RECALLED",null,"Y",2,2,"SCREENING 2","SCREENING","2012-11-28T12:05",-2,"",null,"",""],[29,"CDISCPILOT01","FT","CDISC001",29,"AVL0212","AVL02-List A Word 12","AVLT-REY","FORM 1","NOT RECALLED","NOT RECALLED",null,"Y",2,2,"SCREENING 2","SCREENING","2012-11-28T12:05",-2,"",null,"",""],[30,"CDISCPILOT01","FT","CDISC001",30,"AVL0213","AVL02-List A Word 13","AVLT-REY","FORM 1","NOT RECALLED","NOT RECALLED",null,"Y",2,2,"SCREENING 2","SCREENING","2012-11-28T12:05",-2,"",null,"",""],[31,"CDISCPILOT01","FT","CDISC001",31,"AVL0214","AVL02-List A Word 14","AVLT-REY","FORM 1","NOT RECALLED","NOT RECALLED",null,"Y",2,2,"SCREENING 2","SCREENING","2012-11-28T12:05",-2,"",null,"",""],[32,"CDISCPILOT01","FT","CDISC001",32,"AVL0215","AVL02-List A Word 15","AVLT-REY","FORM 1","NOT RECALLED","NOT RECALLED",null,"Y",2,2,"SCREENING 2","SCREENING","2012-11-28T12:05",-2,"",null,"",""],[33,"CDISCPILOT01","FT","CDISC001",33,"AVL0216","AVL02-List A Total","AVLT-REY","FORM 1","6","6",6,"Y",2,2,"SCREENING 2","SCREENING","2012-11-28T12:05",-2,"",null,"",""],[34,"CDISCPILOT01","FT","CDISC001",34,"AVL0217","AVL02-List A Intrusions","AVLT-REY","FORM 1","2","2",2,"Y",2,2,"SCREENING 2","SCREENING","2012-11-28T12:05",-2,"",null,"",""],[35,"CDISCPILOT01","FT","CDISC001",35,"AVL0201","AVL02-List A Word 1","AVLT-REY","FORM 1","RECALLED","RECALLED",null,"Y",3,2,"SCREENING 2","SCREENING","2012-11-28T12:10",-2,"",null,"",""],[36,"CDISCPILOT01","FT","CDISC001",36,"AVL0202","AVL02-List A Word 2","AVLT-REY","FORM 1","RECALLED","RECALLED",null,"Y",3,2,"SCREENING 2","SCREENING","2012-11-28T12:10",-2,"",null,"",""],[37,"CDISCPILOT01","FT","CDISC001",37,"AVL0203","AVL02-List A Word 3","AVLT-REY","FORM 1","NOT RECALLED","NOT RECALLED",null,"Y",3,2,"SCREENING 2","SCREENING","2012-11-28T12:10",-2,"",null,"",""],[38,"CDISCPILOT01","FT","CDISC001",38,"AVL0204","AVL02-List A Word 4","AVLT-REY","FORM 1","RECALLED","RECALLED",null,"Y",3,2,"SCREENING 2","SCREENING","2012-11-28T12:10",-2,"",null,"",""],[39,"CDISCPILOT01","FT","CDISC001",39,"AVL0205","AVL02-List A Word 5","AVLT-REY","FORM 1","RECALLED","RECALLED",null,"Y",3,2,"SCREENING 2","SCREENING","2012-11-28T12:10",-2,"",null,"",""],[40,"CDISCPILOT01","FT","CDISC001",40,"AVL0206","AVL02-List A Word 6","AVLT-REY","FORM 1","NOT RECALLED","NOT RECALLED",null,"Y",3,2,"SCREENING 2","SCREENING","2012-11-28T12:10",-2,"",null,"",""],[41,"CDISCPILOT01","FT","CDISC001",41,"AVL0207","AVL02-List A Word 7","AVLT-REY","FORM 1","RECALLED","RECALLED",null,"Y",3,2,"SCREENING 2","SCREENING","2012-11-28T12:10",-2,"",null,"",""],[42,"CDISCPILOT01","FT","CDISC001",42,"AVL0208","AVL02-List A Word 8","AVLT-REY","FORM 1","NOT RECALLED","NOT RECALLED",null,"Y",3,2,"SCREENING 2","SCREENING","2012-11-28T12:10",-2,"",null,"",""],[43,"CDISCPILOT01","FT","CDISC001",43,"AVL0209","AVL02-List A Word 9","AVLT-REY","FORM 1","NOT RECALLED","NOT RECALLED",null,"Y",3,2,"SCREENING 2","SCREENING","2012-11-28T12:10",-2,"",null,"",""],[44,"CDISCPILOT01","FT","CDISC001",44,"AVL0210","AVL02-List A Word 10","AVLT-REY","FORM 1","NOT RECALLED","NOT RECALLED",null,"Y",3,2,"SCREENING 2","SCREENING","2012-11-28T12:10",-2,"",null,"",""],[45,"CDISCPILOT01","FT","CDISC001",45,"AVL0211","AVL02-List A Word 11","AVLT-REY","FORM 1","RECALLED","RECALLED",null,"Y",3,2,"SCREENING 2","SCREENING","2012-11-28T12:10",-2,"",null,"",""],[46,"CDISCPILOT01","FT","CDISC001",46,"AVL0212","AVL02-List A Word 12","AVLT-REY","FORM 1","RECALLED","RECALLED",null,"Y",3,2,"SCREENING 2","SCREENING","2012-11-28T12:10",-2,"",null,"",""],[47,"CDISCPILOT01","FT","CDISC001",47,"AVL0213","AVL02-List A Word 13","AVLT-REY","FORM 1","NOT RECALLED","NOT RECALLED",null,"Y",3,2,"SCREENING 2","SCREENING","2012-11-28T12:10",-2,"",null,"",""],[48,"CDISCPILOT01","FT","CDISC001",48,"AVL0214","AVL02-List A Word 14","AVLT-REY","FORM 1","NOT RECALLED","NOT RECALLED",null,"Y",3,2,"SCREENING 2","SCREENING","2012-11-28T12:10",-2,"",null,"",""],[49,"CDISCPILOT01","FT","CDISC001",49,"AVL0215","AVL02-List A Word 15","AVLT-REY","FORM 1","NOT RECALLED","NOT RECALLED",null,"Y",3,2,"SCREENING 2","SCREENING","2012-11-28T12:10",-2,"",null,"",""],[50,"CDISCPILOT01","FT","CDISC001",50,"AVL0216","AVL02-List A Total","AVLT-REY","FORM 1","7","7",7,"Y",3,2,"SCREENING 2","SCREENING","2012-11-28T12:10",-2,"",null,"",""],[51,"CDISCPILOT01","FT","CDISC001",51,"AVL0217","AVL02-List A Intrusions","AVLT-REY","FORM 1","1","1",1,"Y",3,2,"SCREENING 2","SCREENING","2012-11-28T12:10",-2,"",null,"",""],[52,"CDISCPILOT01","FT","CDISC001",52,"AVL0201","AVL02-List A Word 1","AVLT-REY","FORM 1","RECALLED","RECALLED",null,"Y",4,2,"SCREENING 2","SCREENING","2012-11-28T12:15",-2,"",null,"",""],[53,"CDISCPILOT01","FT","CDISC001",53,"AVL0202","AVL02-List A Word 2","AVLT-REY","FORM 1","RECALLED","RECALLED",null,"Y",4,2,"SCREENING 2","SCREENING","2012-11-28T12:15",-2,"",null,"",""],[54,"CDISCPILOT01","FT","CDISC001",54,"AVL0203","AVL02-List A Word 3","AVLT-REY","FORM 1","NOT RECALLED","NOT RECALLED",null,"Y",4,2,"SCREENING 2","SCREENING","2012-11-28T12:15",-2,"",null,"",""],[55,"CDISCPILOT01","FT","CDISC001",55,"AVL0204","AVL02-List A Word 4","AVLT-REY","FORM 1","RECALLED","RECALLED",null,"Y",4,2,"SCREENING 2","SCREENING","2012-11-28T12:15",-2,"",null,"",""],[56,"CDISCPILOT01","FT","CDISC001",56,"AVL0205","AVL02-List A Word 5","AVLT-REY","FORM 1","RECALLED","RECALLED",null,"Y",4,2,"SCREENING 2","SCREENING","2012-11-28T12:15",-2,"",null,"",""],[57,"CDISCPILOT01","FT","CDISC001",57,"AVL0206","AVL02-List A Word 6","AVLT-REY","FORM 1","NOT RECALLED","NOT RECALLED",null,"Y",4,2,"SCREENING 2","SCREENING","2012-11-28T12:15",-2,"",null,"",""],[58,"CDISCPILOT01","FT","CDISC001",58,"AVL0207","AVL02-List A Word 7","AVLT-REY","FORM 1","RECALLED","RECALLED",null,"Y",4,2,"SCREENING 2","SCREENING","2012-11-28T12:15",-2,"",null,"",""],[59,"CDISCPILOT01","FT","CDISC001",59,"AVL0208","AVL02-List A Word 8","AVLT-REY","FORM 1","NOT RECALLED","NOT RECALLED",null,"Y",4,2,"SCREENING 2","SCREENING","2012-11-28T12:15",-2,"",null,"",""],[60,"CDISCPILOT01","FT","CDISC001",60,"AVL0209","AVL02-List A Word 9","AVLT-REY","FORM 1","RECALLED","RECALLED",null,"Y",4,2,"SCREENING 2","SCREENING","2012-11-28T12:15",-2,"",null,"",""],[61,"CDISCPILOT01","FT","CDISC001",61,"AVL0210","AVL02-List A Word 10","AVLT-REY","FORM 1","RECALLED","RECALLED",null,"Y",4,2,"SCREENING 2","SCREENING","2012-11-28T12:15",-2,"",null,"",""],[62,"CDISCPILOT01","FT","CDISC001",62,"AVL0211","AVL02-List A Word 11","AVLT-REY","FORM 1","RECALLED","RECALLED",null,"Y",4,2,"SCREENING 2","SCREENING","2012-11-28T12:15",-2,"",null,"",""],[63,"CDISCPILOT01","FT","CDISC001",63,"AVL0212","AVL02-List A Word 12","AVLT-REY","FORM 1","NOT RECALLED","NOT RECALLED",null,"Y",4,2,"SCREENING 2","SCREENING","2012-11-28T12:15",-2,"",null,"",""],[64,"CDISCPILOT01","FT","CDISC001",64,"AVL0213","AVL02-List A Word 13","AVLT-REY","FORM 1","NOT RECALLED","NOT RECALLED",null,"Y",4,2,"SCREENING 2","SCREENING","2012-11-28T12:15",-2,"",null,"",""],[65,"CDISCPILOT01","FT","CDISC001",65,"AVL0214","AVL02-List A Word 14","AVLT-REY","FORM 1","NOT RECALLED","NOT RECALLED",null,"Y",4,2,"SCREENING 2","SCREENING","2012-11-28T12:15",-2,"",null,"",""],[66,"CDISCPILOT01","FT","CDISC001",66,"AVL0215","AVL02-List A Word 15","AVLT-REY","FORM 1","NOT RECALLED","NOT RECALLED",null,"Y",4,2,"SCREENING 2","SCREENING","2012-11-28T12:15",-2,"",null,"",""],[67,"CDISCPILOT01","FT","CDISC001",67,"AVL0216","AVL02-List A Total","AVLT-REY","FORM 1","8","8",8,"Y",4,2,"SCREENING 2","SCREENING","2012-11-28T12:15",-2,"",null,"",""],[68,"CDISCPILOT01","FT","CDISC001",68,"AVL0217","AVL02-List A Intrusions","AVLT-REY","FORM 1","1","1",1,"Y",4,2,"SCREENING 2","SCREENING","2012-11-28T12:15",-2,"",null,"",""],[69,"CDISCPILOT01","FT","CDISC001",69,"AVL0201","AVL02-List A Word 1","AVLT-REY","FORM 1","RECALLED","RECALLED",null,"Y",5,2,"SCREENING 2","SCREENING","2012-11-28T12:20",-2,"",null,"",""],[70,"CDISCPILOT01","FT","CDISC001",70,"AVL0202","AVL02-List A Word 2","AVLT-REY","FORM 1","RECALLED","RECALLED",null,"Y",5,2,"SCREENING 2","SCREENING","2012-11-28T12:20",-2,"",null,"",""],[71,"CDISCPILOT01","FT","CDISC001",71,"AVL0203","AVL02-List A Word 3","AVLT-REY","FORM 1","NOT RECALLED","NOT RECALLED",null,"Y",5,2,"SCREENING 2","SCREENING","2012-11-28T12:20",-2,"",null,"",""],[72,"CDISCPILOT01","FT","CDISC001",72,"AVL0204","AVL02-List A Word 4","AVLT-REY","FORM 1","RECALLED","RECALLED",null,"Y",5,2,"SCREENING 2","SCREENING","2012-11-28T12:20",-2,"",null,"",""],[73,"CDISCPILOT01","FT","CDISC001",73,"AVL0205","AVL02-List A Word 5","AVLT-REY","FORM 1","RECALLED","RECALLED",null,"Y",5,2,"SCREENING 2","SCREENING","2012-11-28T12:20",-2,"",null,"",""],[74,"CDISCPILOT01","FT","CDISC001",74,"AVL0206","AVL02-List A Word 6","AVLT-REY","FORM 1","NOT RECALLED","NOT RECALLED",null,"Y",5,2,"SCREENING 2","SCREENING","2012-11-28T12:20",-2,"",null,"",""],[75,"CDISCPILOT01","FT","CDISC001",75,"AVL0207","AVL02-List A Word 7","AVLT-REY","FORM 1","RECALLED","RECALLED",null,"Y",5,2,"SCREENING 2","SCREENING","2012-11-28T12:20",-2,"",null,"",""],[76,"CDISCPILOT01","FT","CDISC001",76,"AVL0208","AVL02-List A Word 8","AVLT-REY","FORM 1","NOT RECALLED","NOT RECALLED",null,"Y",5,2,"SCREENING 2","SCREENING","2012-11-28T12:20",-2,"",null,"",""],[77,"CDISCPILOT01","FT","CDISC001",77,"AVL0209","AVL02-List A Word 9","AVLT-REY","FORM 1","RECALLED","RECALLED",null,"Y",5,2,"SCREENING 2","SCREENING","2012-11-28T12:20",-2,"",null,"",""],[78,"CDISCPILOT01","FT","CDISC001",78,"AVL0210","AVL02-List A Word 10","AVLT-REY","FORM 1","RECALLED","RECALLED",null,"Y",5,2,"SCREENING 2","SCREENING","2012-11-28T12:20",-2,"",null,"",""],[79,"CDISCPILOT01","FT","CDISC001",79,"AVL0211","AVL02-List A Word 11","AVLT-REY","FORM 1","RECALLED","RECALLED",null,"Y",5,2,"SCREENING 2","SCREENING","2012-11-28T12:20",-2,"",null,"",""],[80,"CDISCPILOT01","FT","CDISC001",80,"AVL0212","AVL02-List A Word 12","AVLT-REY","FORM 1","NOT RECALLED","NOT RECALLED",null,"Y",5,2,"SCREENING 2","SCREENING","2012-11-28T12:20",-2,"",null,"",""],[81,"CDISCPILOT01","FT","CDISC001",81,"AVL0213","AVL02-List A Word 13","AVLT-REY","FORM 1","NOT RECALLED","NOT RECALLED",null,"Y",5,2,"SCREENING 2","SCREENING","2012-11-28T12:20",-2,"",null,"",""],[82,"CDISCPILOT01","FT","CDISC001",82,"AVL0214","AVL02-List A Word 14","AVLT-REY","FORM 1","NOT RECALLED","NOT RECALLED",null,"Y",5,2,"SCREENING 2","SCREENING","2012-11-28T12:20",-2,"",null,"",""],[83,"CDISCPILOT01","FT","CDISC001",83,"AVL0215","AVL02-List A Word 15","AVLT-REY","FORM 1","NOT RECALLED","NOT RECALLED",null,"Y",5,2,"SCREENING 2","SCREENING","2012-11-28T12:20",-2,"",null,"",""],[84,"CDISCPILOT01","FT","CDISC001",84,"AVL0216","AVL02-List A Total","AVLT-REY","FORM 1","8","8",8,"Y",5,2,"SCREENING 2","SCREENING","2012-11-28T12:20",-2,"",null,"",""],[85,"CDISCPILOT01","FT","CDISC001",85,"AVL0217","AVL02-List A Intrusions","AVLT-REY","FORM 1","2","2",2,"Y",5,2,"SCREENING 2","SCREENING","2012-11-28T12:20",-2,"",null,"",""],[86,"CDISCPILOT01","FT","CDISC001",86,"AVL0218","AVL02-List B Word 1","AVLT-REY","FORM 1","RECALLED","RECALLED",null,"Y",null,2,"SCREENING 2","SCREENING","2012-11-28T12:25",-2,"",null,"",""],[87,"CDISCPILOT01","FT","CDISC001",87,"AVL0219","AVL02-List B Word 2","AVLT-REY","FORM 1","NOT RECALLED","NOT RECALLED",null,"Y",null,2,"SCREENING 2","SCREENING","2012-11-28T12:25",-2,"",null,"",""],[88,"CDISCPILOT01","FT","CDISC001",88,"AVL0220","AVL02-List B Word 3","AVLT-REY","FORM 1","NOT RECALLED","NOT RECALLED",null,"Y",null,2,"SCREENING 2","SCREENING","2012-11-28T12:25",-2,"",null,"",""],[89,"CDISCPILOT01","FT","CDISC001",89,"AVL0221","AVL02-List B Word 4","AVLT-REY","FORM 1","RECALLED","RECALLED",null,"Y",null,2,"SCREENING 2","SCREENING","2012-11-28T12:25",-2,"",null,"",""],[90,"CDISCPILOT01","FT","CDISC001",90,"AVL0222","AVL02-List B Word 5","AVLT-REY","FORM 1","RECALLED","RECALLED",null,"Y",null,2,"SCREENING 2","SCREENING","2012-11-28T12:25",-2,"",null,"",""],[91,"CDISCPILOT01","FT","CDISC001",91,"AVL0223","AVL02-List B Word 6","AVLT-REY","FORM 1","NOT RECALLED","NOT RECALLED",null,"Y",null,2,"SCREENING 2","SCREENING","2012-11-28T12:25",-2,"",null,"",""],[92,"CDISCPILOT01","FT","CDISC001",92,"AVL0224","AVL02-List B Word 7","AVLT-REY","FORM 1","NOT RECALLED","NOT RECALLED",null,"Y",null,2,"SCREENING 2","SCREENING","2012-11-28T12:25",-2,"",null,"",""],[93,"CDISCPILOT01","FT","CDISC001",93,"AVL0225","AVL02-List B Word 8","AVLT-REY","FORM 1","RECALLED","RECALLED",null,"Y",null,2,"SCREENING 2","SCREENING","2012-11-28T12:25",-2,"",null,"",""],[94,"CDISCPILOT01","FT","CDISC001",94,"AVL0226","AVL02-List B Word 9","AVLT-REY","FORM 1","NOT RECALLED","NOT RECALLED",null,"Y",null,2,"SCREENING 2","SCREENING","2012-11-28T12:25",-2,"",null,"",""],[95,"CDISCPILOT01","FT","CDISC001",95,"AVL0227","AVL02-List B Word 10","AVLT-REY","FORM 1","NOT RECALLED","NOT RECALLED",null,"Y",null,2,"SCREENING 2","SCREENING","2012-11-28T12:25",-2,"",null,"",""],[96,"CDISCPILOT01","FT","CDISC001",96,"AVL0228","AVL02-List B Word 11","AVLT-REY","FORM 1","RECALLED","RECALLED",null,"Y",null,2,"SCREENING 2","SCREENING","2012-11-28T12:25",-2,"",null,"",""],[97,"CDISCPILOT01","FT","CDISC001",97,"AVL0229","AVL02-List B Word 12","AVLT-REY","FORM 1","NOT RECALLED","NOT RECALLED",null,"Y",null,2,"SCREENING 2","SCREENING","2012-11-28T12:25",-2,"",null,"",""],[98,"CDISCPILOT01","FT","CDISC001",98,"AVL0230","AVL02-List B Word 13","AVLT-REY","FORM 1","RECALLED","RECALLED",null,"Y",null,2,"SCREENING 2","SCREENING","2012-11-28T12:25",-2,"",null,"",""],[99,"CDISCPILOT01","FT","CDISC001",99,"AVL0231","AVL02-List B Word 14","AVLT-REY","FORM 1","RECALLED","RECALLED",null,"Y",null,2,"SCREENING 2","SCREENING","2012-11-28T12:25",-2,"",null,"",""],[100,"CDISCPILOT01","FT","CDISC001",100,"AVL0232","AVL02-List B Word 15","AVLT-REY","FORM 1","RECALLED","RECALLED",null,"Y",null,2,"SCREENING 2","SCREENING","2012-11-28T12:25",-2,"",null,"",""],[101,"CDISCPILOT01","FT","CDISC001",101,"AVL0233","AVL02- List B Total","AVLT-REY","FORM 1","8","8",8,"Y",null,2,"SCREENING 2","SCREENING","2012-11-28T12:25",-2,"",null,"",""],[102,"CDISCPILOT01","FT","CDISC001",102,"AVL0234","AVL02-List B Intrusions","AVLT-REY","FORM 1","1","1",1,"Y",null,2,"SCREENING 2","SCREENING","2012-11-28T12:25",-2,"",null,"",""],[103,"CDISCPILOT01","FT","CDISC001",103,"AVL0201","AVL02-List A Word 1","AVLT-REY","FORM 1","RECALLED","RECALLED",null,"Y",6,2,"SCREENING 2","SCREENING","2012-11-28T12:30",-2,"",null,"",""],[104,"CDISCPILOT01","FT","CDISC001",104,"AVL0202","AVL02-List A Word 2","AVLT-REY","FORM 1","RECALLED","RECALLED",null,"Y",6,2,"SCREENING 2","SCREENING","2012-11-28T12:30",-2,"",null,"",""],[105,"CDISCPILOT01","FT","CDISC001",105,"AVL0203","AVL02-List A Word 3","AVLT-REY","FORM 1","NOT RECALLED","NOT RECALLED",null,"Y",6,2,"SCREENING 2","SCREENING","2012-11-28T12:30",-2,"",null,"",""],[106,"CDISCPILOT01","FT","CDISC001",106,"AVL0204","AVL02-List A Word 4","AVLT-REY","FORM 1","RECALLED","RECALLED",null,"Y",6,2,"SCREENING 2","SCREENING","2012-11-28T12:30",-2,"",null,"",""],[107,"CDISCPILOT01","FT","CDISC001",107,"AVL0205","AVL02-List A Word 5","AVLT-REY","FORM 1","RECALLED","RECALLED",null,"Y",6,2,"SCREENING 2","SCREENING","2012-11-28T12:30",-2,"",null,"",""],[108,"CDISCPILOT01","FT","CDISC001",108,"AVL0206","AVL02-List A Word 6","AVLT-REY","FORM 1","NOT RECALLED","NOT RECALLED",null,"Y",6,2,"SCREENING 2","SCREENING","2012-11-28T12:30",-2,"",null,"",""],[109,"CDISCPILOT01","FT","CDISC001",109,"AVL0207","AVL02-List A Word 7","AVLT-REY","FORM 1","RECALLED","RECALLED",null,"Y",6,2,"SCREENING 2","SCREENING","2012-11-28T12:30",-2,"",null,"",""],[110,"CDISCPILOT01","FT","CDISC001",110,"AVL0208","AVL02-List A Word 8","AVLT-REY","FORM 1","NOT RECALLED","NOT RECALLED",null,"Y",6,2,"SCREENING 2","SCREENING","2012-11-28T12:30",-2,"",null,"",""],[111,"CDISCPILOT01","FT","CDISC001",111,"AVL0209","AVL02-List A Word 9","AVLT-REY","FORM 1","RECALLED","RECALLED",null,"Y",6,2,"SCREENING 2","SCREENING","2012-11-28T12:30",-2,"",null,"",""],[112,"CDISCPILOT01","FT","CDISC001",112,"AVL0210","AVL02-List A Word 10","AVLT-REY","FORM 1","RECALLED","RECALLED",null,"Y",6,2,"SCREENING 2","SCREENING","2012-11-28T12:30",-2,"",null,"",""],[113,"CDISCPILOT01","FT","CDISC001",113,"AVL0211","AVL02-List A Word 11","AVLT-REY","FORM 1","RECALLED","RECALLED",null,"Y",6,2,"SCREENING 2","SCREENING","2012-11-28T12:30",-2,"",null,"",""],[114,"CDISCPILOT01","FT","CDISC001",114,"AVL0212","AVL02-List A Word 12","AVLT-REY","FORM 1","NOT RECALLED","NOT RECALLED",null,"Y",6,2,"SCREENING 2","SCREENING","2012-11-28T12:30",-2,"",null,"",""],[115,"CDISCPILOT01","FT","CDISC001",115,"AVL0213","AVL02-List A Word 13","AVLT-REY","FORM 1","NOT RECALLED","NOT RECALLED",null,"Y",6,2,"SCREENING 2","SCREENING","2012-11-28T12:30",-2,"",null,"",""],[116,"CDISCPILOT01","FT","CDISC001",116,"AVL0214","AVL02-List A Word 14","AVLT-REY","FORM 1","NOT RECALLED","NOT RECALLED",null,"Y",6,2,"SCREENING 2","SCREENING","2012-11-28T12:30",-2,"",null,"",""],[117,"CDISCPILOT01","FT","CDISC001",117,"AVL0215","AVL02-List A Word 15","AVLT-REY","FORM 1","NOT RECALLED","NOT RECALLED",null,"Y",6,2,"SCREENING 2","SCREENING","2012-11-28T12:30",-2,"",null,"",""],[118,"CDISCPILOT01","FT","CDISC001",118,"AVL0216","AVL02-List A Total","AVLT-REY","FORM 1","8","8",8,"Y",6,2,"SCREENING 2","SCREENING","2012-11-28T12:30",-2,"",null,"",""],[119,"CDISCPILOT01","FT","CDISC001",119,"AVL0217","AVL02-List A Intrusions","AVLT-REY","FORM 1","0","0",0,"Y",6,2,"SCREENING 2","SCREENING","2012-11-28T12:30",-2,"",null,"",""],[120,"CDISCPILOT01","FT","CDISC001",120,"AVL0201","AVL02-List A Word 1","AVLT-REY","FORM 1","RECALLED","RECALLED",null,"Y",7,2,"SCREENING 2","SCREENING","2012-11-28T13:00",-2,"30 MIN POST",1,"PT30M","LIST A RECALL 6"],[121,"CDISCPILOT01","FT","CDISC001",121,"AVL0202","AVL02-List A Word 2","AVLT-REY","FORM 1","RECALLED","RECALLED",null,"Y",7,2,"SCREENING 2","SCREENING","2012-11-28T13:00",-2,"30 MIN POST",1,"PT30M","LIST A RECALL 6"],[122,"CDISCPILOT01","FT","CDISC001",122,"AVL0203","AVL02-List A Word 3","AVLT-REY","FORM 1","NOT RECALLED","NOT RECALLED",null,"Y",7,2,"SCREENING 2","SCREENING","2012-11-28T13:00",-2,"30 MIN POST",1,"PT30M","LIST A RECALL 6"],[123,"CDISCPILOT01","FT","CDISC001",123,"AVL0204","AVL02-List A Word 4","AVLT-REY","FORM 1","RECALLED","RECALLED",null,"Y",7,2,"SCREENING 2","SCREENING","2012-11-28T13:00",-2,"30 MIN POST",1,"PT30M","LIST A RECALL 6"],[124,"CDISCPILOT01","FT","CDISC001",124,"AVL0205","AVL02-List A Word 5","AVLT-REY","FORM 1","RECALLED","RECALLED",null,"Y",7,2,"SCREENING 2","SCREENING","2012-11-28T13:00",-2,"30 MIN POST",1,"PT30M","LIST A RECALL 6"],[125,"CDISCPILOT01","FT","CDISC001",125,"AVL0206","AVL02-List A Word 6","AVLT-REY","FORM 1","RECALLED","RECALLED",null,"Y",7,2,"SCREENING 2","SCREENING","2012-11-28T13:00",-2,"30 MIN POST",1,"PT30M","LIST A RECALL 6"],[126,"CDISCPILOT01","FT","CDISC001",126,"AVL0207","AVL02-List A Word 7","AVLT-REY","FORM 1","RECALLED","RECALLED",null,"Y",7,2,"SCREENING 2","SCREENING","2012-11-28T13:00",-2,"30 MIN POST",1,"PT30M","LIST A RECALL 6"],[127,"CDISCPILOT01","FT","CDISC001",127,"AVL0208","AVL02-List A Word 8","AVLT-REY","FORM 1","NOT RECALLED","NOT RECALLED",null,"Y",7,2,"SCREENING 2","SCREENING","2012-11-28T13:00",-2,"30 MIN POST",1,"PT30M","LIST A RECALL 6"],[128,"CDISCPILOT01","FT","CDISC001",128,"AVL0209","AVL02-List A Word 9","AVLT-REY","FORM 1","NOT RECALLED","NOT RECALLED",null,"Y",7,2,"SCREENING 2","SCREENING","2012-11-28T13:00",-2,"30 MIN POST",1,"PT30M","LIST A RECALL 6"],[129,"CDISCPILOT01","FT","CDISC001",129,"AVL0210","AVL02-List A Word 10","AVLT-REY","FORM 1","NOT RECALLED","NOT RECALLED",null,"Y",7,2,"SCREENING 2","SCREENING","2012-11-28T13:00",-2,"30 MIN POST",1,"PT30M","LIST A RECALL 6"],[130,"CDISCPILOT01","FT","CDISC001",130,"AVL0211","AVL02-List A Word 11","AVLT-REY","FORM 1","NOT RECALLED","NOT RECALLED",null,"Y",7,2,"SCREENING 2","SCREENING","2012-11-28T13:00",-2,"30 MIN POST",1,"PT30M","LIST A RECALL 6"],[131,"CDISCPILOT01","FT","CDISC001",131,"AVL0212","AVL02-List A Word 12","AVLT-REY","FORM 1","NOT RECALLED","NOT RECALLED",null,"Y",7,2,"SCREENING 2","SCREENING","2012-11-28T13:00",-2,"30 MIN POST",1,"PT30M","LIST A RECALL 6"],[132,"CDISCPILOT01","FT","CDISC001",132,"AVL0213","AVL02-List A Word 13","AVLT-REY","FORM 1","RECALLED","RECALLED",null,"Y",7,2,"SCREENING 2","SCREENING","2012-11-28T13:00",-2,"30 MIN POST",1,"PT30M","LIST A RECALL 6"],[133,"CDISCPILOT01","FT","CDISC001",133,"AVL0214","AVL02-List A Word 14","AVLT-REY","FORM 1","NOT RECALLED","NOT RECALLED",null,"Y",7,2,"SCREENING 2","SCREENING","2012-11-28T13:00",-2,"30 MIN POST",1,"PT30M","LIST A RECALL 6"],[134,"CDISCPILOT01","FT","CDISC001",134,"AVL0215","AVL02-List A Word 15","AVLT-REY","FORM 1","NOT RECALLED","NOT RECALLED",null,"Y",7,2,"SCREENING 2","SCREENING","2012-11-28T13:00",-2,"30 MIN POST",1,"PT30M","LIST A RECALL 6"],[135,"CDISCPILOT01","FT","CDISC001",135,"AVL0216","AVL02-List A Total","AVLT-REY","FORM 1","7","7",7,"Y",7,2,"SCREENING 2","SCREENING","2012-11-28T13:00",-2,"30 MIN POST",1,"PT30M","LIST A RECALL 6"],[136,"CDISCPILOT01","FT","CDISC001",136,"AVL0217","AVL02-List A Intrusions","AVLT-REY","FORM 1","0","0",0,"Y",7,2,"SCREENING 2","SCREENING","2012-11-28T13:00",-2,"30 MIN POST",1,"PT30M","LIST A RECALL 6"],[137,"CDISCPILOT01","FT","CDISC001",137,"AVL0201","AVL02-List A Word 1","AVLT-REY","FORM 1","RECALLED","RECALLED",null,"",1,8,"WEEK 8","TREATMENT","2013-01-23T12:00",55,"",null,"",""],[138,"CDISCPILOT01","FT","CDISC001",138,"AVL0202","AVL02-List A Word 2","AVLT-REY","FORM 1","NOT RECALLED","NOT RECALLED",null,"",1,8,"WEEK 8","TREATMENT","2013-01-23T12:00",55,"",null,"",""],[139,"CDISCPILOT01","FT","CDISC001",139,"AVL0203","AVL02-List A Word 3","AVLT-REY","FORM 1","NOT RECALLED","NOT RECALLED",null,"",1,8,"WEEK 8","TREATMENT","2013-01-23T12:00",55,"",null,"",""],[140,"CDISCPILOT01","FT","CDISC001",140,"AVL0204","AVL02-List A Word 4","AVLT-REY","FORM 1","RECALLED","RECALLED",null,"",1,8,"WEEK 8","TREATMENT","2013-01-23T12:00",55,"",null,"",""],[141,"CDISCPILOT01","FT","CDISC001",141,"AVL0205","AVL02-List A Word 5","AVLT-REY","FORM 1","RECALLED","RECALLED",null,"",1,8,"WEEK 8","TREATMENT","2013-01-23T12:00",55,"",null,"",""],[142,"CDISCPILOT01","FT","CDISC001",142,"AVL0206","AVL02-List A Word 6","AVLT-REY","FORM 1","RECALLED","RECALLED",null,"",1,8,"WEEK 8","TREATMENT","2013-01-23T12:00",55,"",null,"",""],[143,"CDISCPILOT01","FT","CDISC001",143,"AVL0207","AVL02-List A Word 7","AVLT-REY","FORM 1","RECALLED","RECALLED",null,"",1,8,"WEEK 8","TREATMENT","2013-01-23T12:00",55,"",null,"",""],[144,"CDISCPILOT01","FT","CDISC001",144,"AVL0208","AVL02-List A Word 8","AVLT-REY","FORM 1","NOT RECALLED","NOT RECALLED",null,"",1,8,"WEEK 8","TREATMENT","2013-01-23T12:00",55,"",null,"",""],[145,"CDISCPILOT01","FT","CDISC001",145,"AVL0209","AVL02-List A Word 9","AVLT-REY","FORM 1","NOT RECALLED","NOT RECALLED",null,"",1,8,"WEEK 8","TREATMENT","2013-01-23T12:00",55,"",null,"",""],[146,"CDISCPILOT01","FT","CDISC001",146,"AVL0210","AVL02-List A Word 10","AVLT-REY","FORM 1","NOT RECALLED","NOT RECALLED",null,"",1,8,"WEEK 8","TREATMENT","2013-01-23T12:00",55,"",null,"",""],[147,"CDISCPILOT01","FT","CDISC001",147,"AVL0211","AVL02-List A Word 11","AVLT-REY","FORM 1","NOT RECALLED","NOT RECALLED",null,"",1,8,"WEEK 8","TREATMENT","2013-01-23T12:00",55,"",null,"",""],[148,"CDISCPILOT01","FT","CDISC001",148,"AVL0212","AVL02-List A Word 12","AVLT-REY","FORM 1","NOT RECALLED","NOT RECALLED",null,"",1,8,"WEEK 8","TREATMENT","2013-01-23T12:00",55,"",null,"",""],[149,"CDISCPILOT01","FT","CDISC001",149,"AVL0213","AVL02-List A Word 13","AVLT-REY","FORM 1","NOT RECALLED","NOT RECALLED",null,"",1,8,"WEEK 8","TREATMENT","2013-01-23T12:00",55,"",null,"",""],[150,"CDISCPILOT01","FT","CDISC001",150,"AVL0214","AVL02-List A Word 14","AVLT-REY","FORM 1","NOT RECALLED","NOT RECALLED",null,"",1,8,"WEEK 8","TREATMENT","2013-01-23T12:00",55,"",null,"",""],[151,"CDISCPILOT01","FT","CDISC001",151,"AVL0215","AVL02-List A Word 15","AVLT-REY","FORM 1","NOT RECALLED","NOT RECALLED",null,"",1,8,"WEEK 8","TREATMENT","2013-01-23T12:00",55,"",null,"",""],[152,"CDISCPILOT01","FT","CDISC001",152,"AVL0216","AVL02-List A Total","AVLT-REY","FORM 1","5","5",5,"",1,8,"WEEK 8","TREATMENT","2013-01-23T12:00",55,"",null,"",""],[153,"CDISCPILOT01","FT","CDISC001",153,"AVL0217","AVL02-List A Intrusions","AVLT-REY","FORM 1","0","0",0,"",1,8,"WEEK 8","TREATMENT","2013-01-23T12:00",55,"",null,"",""],[154,"CDISCPILOT01","FT","CDISC001",154,"AVL0201","AVL02-List A Word 1","AVLT-REY","FORM 1","RECALLED","RECALLED",null,"",2,8,"WEEK 8","TREATMENT","2013-01-23T12:05",55,"",null,"",""],[155,"CDISCPILOT01","FT","CDISC001",155,"AVL0202","AVL02-List A Word 2","AVLT-REY","FORM 1","NOT RECALLED","NOT RECALLED",null,"",2,8,"WEEK 8","TREATMENT","2013-01-23T12:05",55,"",null,"",""],[156,"CDISCPILOT01","FT","CDISC001",156,"AVL0203","AVL02-List A Word 3","AVLT-REY","FORM 1","NOT RECALLED","NOT RECALLED",null,"",2,8,"WEEK 8","TREATMENT","2013-01-23T12:05",55,"",null,"",""],[157,"CDISCPILOT01","FT","CDISC001",157,"AVL0204","AVL02-List A Word 4","AVLT-REY","FORM 1","RECALLED","RECALLED",null,"",2,8,"WEEK 8","TREATMENT","2013-01-23T12:05",55,"",null,"",""],[158,"CDISCPILOT01","FT","CDISC001",158,"AVL0205","AVL02-List A Word 5","AVLT-REY","FORM 1","RECALLED","RECALLED",null,"",2,8,"WEEK 8","TREATMENT","2013-01-23T12:05",55,"",null,"",""],[159,"CDISCPILOT01","FT","CDISC001",159,"AVL0206","AVL02-List A Word 6","AVLT-REY","FORM 1","RECALLED","RECALLED",null,"",2,8,"WEEK 8","TREATMENT","2013-01-23T12:05",55,"",null,"",""],[160,"CDISCPILOT01","FT","CDISC001",160,"AVL0207","AVL02-List A Word 7","AVLT-REY","FORM 1","NOT RECALLED","NOT RECALLED",null,"",2,8,"WEEK 8","TREATMENT","2013-01-23T12:05",55,"",null,"",""],[161,"CDISCPILOT01","FT","CDISC001",161,"AVL0208","AVL02-List A Word 8","AVLT-REY","FORM 1","NOT RECALLED","NOT RECALLED",null,"",2,8,"WEEK 8","TREATMENT","2013-01-23T12:05",55,"",null,"",""],[162,"CDISCPILOT01","FT","CDISC001",162,"AVL0209","AVL02-List A Word 9","AVLT-REY","FORM 1","NOT RECALLED","NOT RECALLED",null,"",2,8,"WEEK 8","TREATMENT","2013-01-23T12:05",55,"",null,"",""],[163,"CDISCPILOT01","FT","CDISC001",163,"AVL0210","AVL02-List A Word 10","AVLT-REY","FORM 1","RECALLED","RECALLED",null,"",2,8,"WEEK 8","TREATMENT","2013-01-23T12:05",55,"",null,"",""],[164,"CDISCPILOT01","FT","CDISC001",164,"AVL0211","AVL02-List A Word 11","AVLT-REY","FORM 1","RECALLED","RECALLED",null,"",2,8,"WEEK 8","TREATMENT","2013-01-23T12:05",55,"",null,"",""],[165,"CDISCPILOT01","FT","CDISC001",165,"AVL0212","AVL02-List A Word 12","AVLT-REY","FORM 1","NOT RECALLED","NOT RECALLED",null,"",2,8,"WEEK 8","TREATMENT","2013-01-23T12:05",55,"",null,"",""],[166,"CDISCPILOT01","FT","CDISC001",166,"AVL0213","AVL02-List A Word 13","AVLT-REY","FORM 1","NOT RECALLED","NOT RECALLED",null,"",2,8,"WEEK 8","TREATMENT","2013-01-23T12:05",55,"",null,"",""],[167,"CDISCPILOT01","FT","CDISC001",167,"AVL0214","AVL02-List A Word 14","AVLT-REY","FORM 1","NOT RECALLED","NOT RECALLED",null,"",2,8,"WEEK 8","TREATMENT","2013-01-23T12:05",55,"",null,"",""],[168,"CDISCPILOT01","FT","CDISC001",168,"AVL0215","AVL02-List A Word 15","AVLT-REY","FORM 1","NOT RECALLED","NOT RECALLED",null,"",2,8,"WEEK 8","TREATMENT","2013-01-23T12:05",55,"",null,"",""],[169,"CDISCPILOT01","FT","CDISC001",169,"AVL0216","AVL02-List A Total","AVLT-REY","FORM 1","6","6",6,"",2,8,"WEEK 8","TREATMENT","2013-01-23T12:05",55,"",null,"",""],[170,"CDISCPILOT01","FT","CDISC001",170,"AVL0217","AVL02-List A Intrusions","AVLT-REY","FORM 1","0","0",0,"",2,8,"WEEK 8","TREATMENT","2013-01-23T12:05",55,"",null,"",""],[171,"CDISCPILOT01","FT","CDISC001",171,"AVL0201","AVL02-List A Word 1","AVLT-REY","FORM 1","RECALLED","RECALLED",null,"",3,8,"WEEK 8","TREATMENT","2013-01-23T12:10",55,"",null,"",""],[172,"CDISCPILOT01","FT","CDISC001",172,"AVL0202","AVL02-List A Word 2","AVLT-REY","FORM 1","NOT RECALLED","NOT RECALLED",null,"",3,8,"WEEK 8","TREATMENT","2013-01-23T12:10",55,"",null,"",""],[173,"CDISCPILOT01","FT","CDISC001",173,"AVL0203","AVL02-List A Word 3","AVLT-REY","FORM 1","RECALLED","RECALLED",null,"",3,8,"WEEK 8","TREATMENT","2013-01-23T12:10",55,"",null,"",""],[174,"CDISCPILOT01","FT","CDISC001",174,"AVL0204","AVL02-List A Word 4","AVLT-REY","FORM 1","RECALLED","RECALLED",null,"",3,8,"WEEK 8","TREATMENT","2013-01-23T12:10",55,"",null,"",""],[175,"CDISCPILOT01","FT","CDISC001",175,"AVL0205","AVL02-List A Word 5","AVLT-REY","FORM 1","RECALLED","RECALLED",null,"",3,8,"WEEK 8","TREATMENT","2013-01-23T12:10",55,"",null,"",""],[176,"CDISCPILOT01","FT","CDISC001",176,"AVL0206","AVL02-List A Word 6","AVLT-REY","FORM 1","RECALLED","RECALLED",null,"",3,8,"WEEK 8","TREATMENT","2013-01-23T12:10",55,"",null,"",""],[177,"CDISCPILOT01","FT","CDISC001",177,"AVL0207","AVL02-List A Word 7","AVLT-REY","FORM 1","RECALLED","RECALLED",null,"",3,8,"WEEK 8","TREATMENT","2013-01-23T12:10",55,"",null,"",""],[178,"CDISCPILOT01","FT","CDISC001",178,"AVL0208","AVL02-List A Word 8","AVLT-REY","FORM 1","NOT RECALLED","NOT RECALLED",null,"",3,8,"WEEK 8","TREATMENT","2013-01-23T12:10",55,"",null,"",""],[179,"CDISCPILOT01","FT","CDISC001",179,"AVL0209","AVL02-List A Word 9","AVLT-REY","FORM 1","NOT RECALLED","NOT RECALLED",null,"",3,8,"WEEK 8","TREATMENT","2013-01-23T12:10",55,"",null,"",""],[180,"CDISCPILOT01","FT","CDISC001",180,"AVL0210","AVL02-List A Word 10","AVLT-REY","FORM 1","RECALLED","RECALLED",null,"",3,8,"WEEK 8","TREATMENT","2013-01-23T12:10",55,"",null,"",""],[181,"CDISCPILOT01","FT","CDISC001",181,"AVL0211","AVL02-List A Word 11","AVLT-REY","FORM 1","RECALLED","RECALLED",null,"",3,8,"WEEK 8","TREATMENT","2013-01-23T12:10",55,"",null,"",""],[182,"CDISCPILOT01","FT","CDISC001",182,"AVL0212","AVL02-List A Word 12","AVLT-REY","FORM 1","NOT RECALLED","NOT RECALLED",null,"",3,8,"WEEK 8","TREATMENT","2013-01-23T12:10",55,"",null,"",""],[183,"CDISCPILOT01","FT","CDISC001",183,"AVL0213","AVL02-List A Word 13","AVLT-REY","FORM 1","NOT RECALLED","NOT RECALLED",null,"",3,8,"WEEK 8","TREATMENT","2013-01-23T12:10",55,"",null,"",""],[184,"CDISCPILOT01","FT","CDISC001",184,"AVL0214","AVL02-List A Word 14","AVLT-REY","FORM 1","NOT RECALLED","NOT RECALLED",null,"",3,8,"WEEK 8","TREATMENT","2013-01-23T12:10",55,"",null,"",""],[185,"CDISCPILOT01","FT","CDISC001",185,"AVL0215","AVL02-List A Word 15","AVLT-REY","FORM 1","NOT RECALLED","NOT RECALLED",null,"",3,8,"WEEK 8","TREATMENT","2013-01-23T12:10",55,"",null,"",""],[186,"CDISCPILOT01","FT","CDISC001",186,"AVL0216","AVL02-List A Total","AVLT-REY","FORM 1","8","8",8,"",3,8,"WEEK 8","TREATMENT","2013-01-23T12:10",55,"",null,"",""],[187,"CDISCPILOT01","FT","CDISC001",187,"AVL0217","AVL02-List A Intrusions","AVLT-REY","FORM 1","0","0",0,"",3,8,"WEEK 8","TREATMENT","2013-01-23T12:10",55,"",null,"",""],[188,"CDISCPILOT01","FT","CDISC001",188,"AVL0201","AVL02-List A Word 1","AVLT-REY","FORM 1","RECALLED","RECALLED",null,"",4,8,"WEEK 8","TREATMENT","2013-01-23T12:15",55,"",null,"",""],[189,"CDISCPILOT01","FT","CDISC001",189,"AVL0202","AVL02-List A Word 2","AVLT-REY","FORM 1","NOT RECALLED","NOT RECALLED",null,"",4,8,"WEEK 8","TREATMENT","2013-01-23T12:15",55,"",null,"",""],[190,"CDISCPILOT01","FT","CDISC001",190,"AVL0203","AVL02-List A Word 3","AVLT-REY","FORM 1","RECALLED","RECALLED",null,"",4,8,"WEEK 8","TREATMENT","2013-01-23T12:15",55,"",null,"",""],[191,"CDISCPILOT01","FT","CDISC001",191,"AVL0204","AVL02-List A Word 4","AVLT-REY","FORM 1","RECALLED","RECALLED",null,"",4,8,"WEEK 8","TREATMENT","2013-01-23T12:15",55,"",null,"",""],[192,"CDISCPILOT01","FT","CDISC001",192,"AVL0205","AVL02-List A Word 5","AVLT-REY","FORM 1","RECALLED","RECALLED",null,"",4,8,"WEEK 8","TREATMENT","2013-01-23T12:15",55,"",null,"",""],[193,"CDISCPILOT01","FT","CDISC001",193,"AVL0206","AVL02-List A Word 6","AVLT-REY","FORM 1","RECALLED","RECALLED",null,"",4,8,"WEEK 8","TREATMENT","2013-01-23T12:15",55,"",null,"",""],[194,"CDISCPILOT01","FT","CDISC001",194,"AVL0207","AVL02-List A Word 7","AVLT-REY","FORM 1","RECALLED","RECALLED",null,"",4,8,"WEEK 8","TREATMENT","2013-01-23T12:15",55,"",null,"",""],[195,"CDISCPILOT01","FT","CDISC001",195,"AVL0208","AVL02-List A Word 8","AVLT-REY","FORM 1","NOT RECALLED","NOT RECALLED",null,"",4,8,"WEEK 8","TREATMENT","2013-01-23T12:15",55,"",null,"",""],[196,"CDISCPILOT01","FT","CDISC001",196,"AVL0209","AVL02-List A Word 9","AVLT-REY","FORM 1","NOT RECALLED","NOT RECALLED",null,"",4,8,"WEEK 8","TREATMENT","2013-01-23T12:15",55,"",null,"",""],[197,"CDISCPILOT01","FT","CDISC001",197,"AVL0210","AVL02-List A Word 10","AVLT-REY","FORM 1","RECALLED","RECALLED",null,"",4,8,"WEEK 8","TREATMENT","2013-01-23T12:15",55,"",null,"",""],[198,"CDISCPILOT01","FT","CDISC001",198,"AVL0211","AVL02-List A Word 11","AVLT-REY","FORM 1","RECALLED","RECALLED",null,"",4,8,"WEEK 8","TREATMENT","2013-01-23T12:15",55,"",null,"",""],[199,"CDISCPILOT01","FT","CDISC001",199,"AVL0212","AVL02-List A Word 12","AVLT-REY","FORM 1","RECALLED","RECALLED",null,"",4,8,"WEEK 8","TREATMENT","2013-01-23T12:15",55,"",null,"",""],[200,"CDISCPILOT01","FT","CDISC001",200,"AVL0213","AVL02-List A Word 13","AVLT-REY","FORM 1","NOT RECALLED","NOT RECALLED",null,"",4,8,"WEEK 8","TREATMENT","2013-01-23T12:15",55,"",null,"",""],[201,"CDISCPILOT01","FT","CDISC001",201,"AVL0214","AVL02-List A Word 14","AVLT-REY","FORM 1","NOT RECALLED","NOT RECALLED",null,"",4,8,"WEEK 8","TREATMENT","2013-01-23T12:15",55,"",null,"",""],[202,"CDISCPILOT01","FT","CDISC001",202,"AVL0215","AVL02-List A Word 15","AVLT-REY","FORM 1","NOT RECALLED","NOT RECALLED",null,"",4,8,"WEEK 8","TREATMENT","2013-01-23T12:15",55,"",null,"",""],[203,"CDISCPILOT01","FT","CDISC001",203,"AVL0216","AVL02-List A Total","AVLT-REY","FORM 1","9","9",9,"",4,8,"WEEK 8","TREATMENT","2013-01-23T12:15",55,"",null,"",""],[204,"CDISCPILOT01","FT","CDISC001",204,"AVL0217","AVL02-List A Intrusions","AVLT-REY","FORM 1","0","0",0,"",4,8,"WEEK 8","TREATMENT","2013-01-23T12:15",55,"",null,"",""],[205,"CDISCPILOT01","FT","CDISC001",205,"AVL0201","AVL02-List A Word 1","AVLT-REY","FORM 1","RECALLED","RECALLED",null,"",5,8,"WEEK 8","TREATMENT","2013-01-23T12:20",55,"",null,"",""],[206,"CDISCPILOT01","FT","CDISC001",206,"AVL0202","AVL02-List A Word 2","AVLT-REY","FORM 1","NOT RECALLED","NOT RECALLED",null,"",5,8,"WEEK 8","TREATMENT","2013-01-23T12:20",55,"",null,"",""],[207,"CDISCPILOT01","FT","CDISC001",207,"AVL0203","AVL02-List A Word 3","AVLT-REY","FORM 1","RECALLED","RECALLED",null,"",5,8,"WEEK 8","TREATMENT","2013-01-23T12:20",55,"",null,"",""],[208,"CDISCPILOT01","FT","CDISC001",208,"AVL0204","AVL02-List A Word 4","AVLT-REY","FORM 1","RECALLED","RECALLED",null,"",5,8,"WEEK 8","TREATMENT","2013-01-23T12:20",55,"",null,"",""],[209,"CDISCPILOT01","FT","CDISC001",209,"AVL0205","AVL02-List A Word 5","AVLT-REY","FORM 1","RECALLED","RECALLED",null,"",5,8,"WEEK 8","TREATMENT","2013-01-23T12:20",55,"",null,"",""],[210,"CDISCPILOT01","FT","CDISC001",210,"AVL0206","AVL02-List A Word 6","AVLT-REY","FORM 1","RECALLED","RECALLED",null,"",5,8,"WEEK 8","TREATMENT","2013-01-23T12:20",55,"",null,"",""],[211,"CDISCPILOT01","FT","CDISC001",211,"AVL0207","AVL02-List A Word 7","AVLT-REY","FORM 1","RECALLED","RECALLED",null,"",5,8,"WEEK 8","TREATMENT","2013-01-23T12:20",55,"",null,"",""],[212,"CDISCPILOT01","FT","CDISC001",212,"AVL0208","AVL02-List A Word 8","AVLT-REY","FORM 1","NOT RECALLED","NOT RECALLED",null,"",5,8,"WEEK 8","TREATMENT","2013-01-23T12:20",55,"",null,"",""],[213,"CDISCPILOT01","FT","CDISC001",213,"AVL0209","AVL02-List A Word 9","AVLT-REY","FORM 1","NOT RECALLED","NOT RECALLED",null,"",5,8,"WEEK 8","TREATMENT","2013-01-23T12:20",55,"",null,"",""],[214,"CDISCPILOT01","FT","CDISC001",214,"AVL0210","AVL02-List A Word 10","AVLT-REY","FORM 1","RECALLED","RECALLED",null,"",5,8,"WEEK 8","TREATMENT","2013-01-23T12:20",55,"",null,"",""],[215,"CDISCPILOT01","FT","CDISC001",215,"AVL0211","AVL02-List A Word 11","AVLT-REY","FORM 1","RECALLED","RECALLED",null,"",5,8,"WEEK 8","TREATMENT","2013-01-23T12:20",55,"",null,"",""],[216,"CDISCPILOT01","FT","CDISC001",216,"AVL0212","AVL02-List A Word 12","AVLT-REY","FORM 1","RECALLED","RECALLED",null,"",5,8,"WEEK 8","TREATMENT","2013-01-23T12:20",55,"",null,"",""],[217,"CDISCPILOT01","FT","CDISC001",217,"AVL0213","AVL02-List A Word 13","AVLT-REY","FORM 1","NOT RECALLED","NOT RECALLED",null,"",5,8,"WEEK 8","TREATMENT","2013-01-23T12:20",55,"",null,"",""],[218,"CDISCPILOT01","FT","CDISC001",218,"AVL0214","AVL02-List A Word 14","AVLT-REY","FORM 1","NOT RECALLED","NOT RECALLED",null,"",5,8,"WEEK 8","TREATMENT","2013-01-23T12:20",55,"",null,"",""],[219,"CDISCPILOT01","FT","CDISC001",219,"AVL0215","AVL02-List A Word 15","AVLT-REY","FORM 1","NOT RECALLED","NOT RECALLED",null,"",5,8,"WEEK 8","TREATMENT","2013-01-23T12:20",55,"",null,"",""],[220,"CDISCPILOT01","FT","CDISC001",220,"AVL0216","AVL02-List A Total","AVLT-REY","FORM 1","9","9",9,"",5,8,"WEEK 8","TREATMENT","2013-01-23T12:20",55,"",null,"",""],[221,"CDISCPILOT01","FT","CDISC001",221,"AVL0217","AVL02-List A Intrusions","AVLT-REY","FORM 1","0","0",0,"",5,8,"WEEK 8","TREATMENT","2013-01-23T12:20",55,"",null,"",""],[222,"CDISCPILOT01","FT","CDISC001",222,"AVL0218","AVL02-List B Word 1","AVLT-REY","FORM 1","RECALLED","RECALLED",null,"",null,8,"WEEK 8","TREATMENT","2013-01-23T12:25",55,"",null,"",""],[223,"CDISCPILOT01","FT","CDISC001",223,"AVL0219","AVL02-List B Word 2","AVLT-REY","FORM 1","NOT RECALLED","NOT RECALLED",null,"",null,8,"WEEK 8","TREATMENT","2013-01-23T12:25",55,"",null,"",""],[224,"CDISCPILOT01","FT","CDISC001",224,"AVL0220","AVL02-List B Word 3","AVLT-REY","FORM 1","RECALLED","RECALLED",null,"",null,8,"WEEK 8","TREATMENT","2013-01-23T12:25",55,"",null,"",""],[225,"CDISCPILOT01","FT","CDISC001",225,"AVL0221","AVL02-List B Word 4","AVLT-REY","FORM 1","RECALLED","RECALLED",null,"",null,8,"WEEK 8","TREATMENT","2013-01-23T12:25",55,"",null,"",""],[226,"CDISCPILOT01","FT","CDISC001",226,"AVL0222","AVL02-List B Word 5","AVLT-REY","FORM 1","RECALLED","RECALLED",null,"",null,8,"WEEK 8","TREATMENT","2013-01-23T12:25",55,"",null,"",""],[227,"CDISCPILOT01","FT","CDISC001",227,"AVL0223","AVL02-List B Word 6","AVLT-REY","FORM 1","RECALLED","RECALLED",null,"",null,8,"WEEK 8","TREATMENT","2013-01-23T12:25",55,"",null,"",""],[228,"CDISCPILOT01","FT","CDISC001",228,"AVL0224","AVL02-List B Word 7","AVLT-REY","FORM 1","RECALLED","RECALLED",null,"",null,8,"WEEK 8","TREATMENT","2013-01-23T12:25",55,"",null,"",""],[229,"CDISCPILOT01","FT","CDISC001",229,"AVL0225","AVL02-List B Word 8","AVLT-REY","FORM 1","RECALLED","RECALLED",null,"",null,8,"WEEK 8","TREATMENT","2013-01-23T12:25",55,"",null,"",""],[230,"CDISCPILOT01","FT","CDISC001",230,"AVL0226","AVL02-List B Word 9","AVLT-REY","FORM 1","RECALLED","RECALLED",null,"",null,8,"WEEK 8","TREATMENT","2013-01-23T12:25",55,"",null,"",""],[231,"CDISCPILOT01","FT","CDISC001",231,"AVL0227","AVL02-List B Word 10","AVLT-REY","FORM 1","RECALLED","RECALLED",null,"",null,8,"WEEK 8","TREATMENT","2013-01-23T12:25",55,"",null,"",""],[232,"CDISCPILOT01","FT","CDISC001",232,"AVL0228","AVL02-List B Word 11","AVLT-REY","FORM 1","RECALLED","RECALLED",null,"",null,8,"WEEK 8","TREATMENT","2013-01-23T12:25",55,"",null,"",""],[233,"CDISCPILOT01","FT","CDISC001",233,"AVL0229","AVL02-List B Word 12","AVLT-REY","FORM 1","RECALLED","RECALLED",null,"",null,8,"WEEK 8","TREATMENT","2013-01-23T12:25",55,"",null,"",""],[234,"CDISCPILOT01","FT","CDISC001",234,"AVL0230","AVL02-List B Word 13","AVLT-REY","FORM 1","NOT RECALLED","NOT RECALLED",null,"",null,8,"WEEK 8","TREATMENT","2013-01-23T12:25",55,"",null,"",""],[235,"CDISCPILOT01","FT","CDISC001",235,"AVL0231","AVL02-List B Word 14","AVLT-REY","FORM 1","NOT RECALLED","NOT RECALLED",null,"",null,8,"WEEK 8","TREATMENT","2013-01-23T12:25",55,"",null,"",""],[236,"CDISCPILOT01","FT","CDISC001",236,"AVL0232","AVL02-List B Word 15","AVLT-REY","FORM 1","NOT RECALLED","NOT RECALLED",null,"",null,8,"WEEK 8","TREATMENT","2013-01-23T12:25",55,"",null,"",""],[237,"CDISCPILOT01","FT","CDISC001",237,"AVL0233","AVL02- List B Total","AVLT-REY","FORM 1","11","11",11,"",null,8,"WEEK 8","TREATMENT","2013-01-23T12:25",55,"",null,"",""],[238,"CDISCPILOT01","FT","CDISC001",238,"AVL0234","AVL02-List B Intrusions","AVLT-REY","FORM 1","0","0",0,"",null,8,"WEEK 8","TREATMENT","2013-01-23T12:25",55,"",null,"",""],[239,"CDISCPILOT01","FT","CDISC001",239,"AVL0201","AVL02-List A Word 1","AVLT-REY","FORM 1","RECALLED","RECALLED",null,"",6,8,"WEEK 8","TREATMENT","2013-01-23T12:30",55,"",null,"",""],[240,"CDISCPILOT01","FT","CDISC001",240,"AVL0202","AVL02-List A Word 2","AVLT-REY","FORM 1","NOT RECALLED","NOT RECALLED",null,"",6,8,"WEEK 8","TREATMENT","2013-01-23T12:30",55,"",null,"",""],[241,"CDISCPILOT01","FT","CDISC001",241,"AVL0203","AVL02-List A Word 3","AVLT-REY","FORM 1","RECALLED","RECALLED",null,"",6,8,"WEEK 8","TREATMENT","2013-01-23T12:30",55,"",null,"",""],[242,"CDISCPILOT01","FT","CDISC001",242,"AVL0204","AVL02-List A Word 4","AVLT-REY","FORM 1","RECALLED","RECALLED",null,"",6,8,"WEEK 8","TREATMENT","2013-01-23T12:30",55,"",null,"",""],[243,"CDISCPILOT01","FT","CDISC001",243,"AVL0205","AVL02-List A Word 5","AVLT-REY","FORM 1","RECALLED","RECALLED",null,"",6,8,"WEEK 8","TREATMENT","2013-01-23T12:30",55,"",null,"",""],[244,"CDISCPILOT01","FT","CDISC001",244,"AVL0206","AVL02-List A Word 6","AVLT-REY","FORM 1","RECALLED","RECALLED",null,"",6,8,"WEEK 8","TREATMENT","2013-01-23T12:30",55,"",null,"",""],[245,"CDISCPILOT01","FT","CDISC001",245,"AVL0207","AVL02-List A Word 7","AVLT-REY","FORM 1","RECALLED","RECALLED",null,"",6,8,"WEEK 8","TREATMENT","2013-01-23T12:30",55,"",null,"",""],[246,"CDISCPILOT01","FT","CDISC001",246,"AVL0208","AVL02-List A Word 8","AVLT-REY","FORM 1","RECALLED","RECALLED",null,"",6,8,"WEEK 8","TREATMENT","2013-01-23T12:30",55,"",null,"",""],[247,"CDISCPILOT01","FT","CDISC001",247,"AVL0209","AVL02-List A Word 9","AVLT-REY","FORM 1","RECALLED","RECALLED",null,"",6,8,"WEEK 8","TREATMENT","2013-01-23T12:30",55,"",null,"",""],[248,"CDISCPILOT01","FT","CDISC001",248,"AVL0210","AVL02-List A Word 10","AVLT-REY","FORM 1","RECALLED","RECALLED",null,"",6,8,"WEEK 8","TREATMENT","2013-01-23T12:30",55,"",null,"",""],[249,"CDISCPILOT01","FT","CDISC001",249,"AVL0211","AVL02-List A Word 11","AVLT-REY","FORM 1","RECALLED","RECALLED",null,"",6,8,"WEEK 8","TREATMENT","2013-01-23T12:30",55,"",null,"",""],[250,"CDISCPILOT01","FT","CDISC001",250,"AVL0212","AVL02-List A Word 12","AVLT-REY","FORM 1","RECALLED","RECALLED",null,"",6,8,"WEEK 8","TREATMENT","2013-01-23T12:30",55,"",null,"",""],[251,"CDISCPILOT01","FT","CDISC001",251,"AVL0213","AVL02-List A Word 13","AVLT-REY","FORM 1","NOT RECALLED","NOT RECALLED",null,"",6,8,"WEEK 8","TREATMENT","2013-01-23T12:30",55,"",null,"",""],[252,"CDISCPILOT01","FT","CDISC001",252,"AVL0214","AVL02-List A Word 14","AVLT-REY","FORM 1","NOT RECALLED","NOT RECALLED",null,"",6,8,"WEEK 8","TREATMENT","2013-01-23T12:30",55,"",null,"",""],[253,"CDISCPILOT01","FT","CDISC001",253,"AVL0215","AVL02-List A Word 15","AVLT-REY","FORM 1","NOT RECALLED","NOT RECALLED",null,"",6,8,"WEEK 8","TREATMENT","2013-01-23T12:30",55,"",null,"",""],[254,"CDISCPILOT01","FT","CDISC001",254,"AVL0216","AVL02-List A Total","AVLT-REY","FORM 1","11","11",11,"",6,8,"WEEK 8","TREATMENT","2013-01-23T12:30",55,"",null,"",""],[255,"CDISCPILOT01","FT","CDISC001",255,"AVL0217","AVL02-List A Intrusions","AVLT-REY","FORM 1","2","2",2,"",6,8,"WEEK 8","TREATMENT","2013-01-23T12:30",55,"",null,"",""],[256,"CDISCPILOT01","FT","CDISC001",256,"AVL0201","AVL02-List A Word 1","AVLT-REY","FORM 1","RECALLED","RECALLED",null,"",7,8,"WEEK 8","TREATMENT","2013-01-23T13:00",55,"30 MIN POST",1,"PT30M","LIST A RECALL 6"],[257,"CDISCPILOT01","FT","CDISC001",257,"AVL0202","AVL02-List A Word 2","AVLT-REY","FORM 1","NOT RECALLED","NOT RECALLED",null,"",7,8,"WEEK 8","TREATMENT","2013-01-23T13:00",55,"30 MIN POST",1,"PT30M","LIST A RECALL 6"],[258,"CDISCPILOT01","FT","CDISC001",258,"AVL0203","AVL02-List A Word 3","AVLT-REY","FORM 1","RECALLED","RECALLED",null,"",7,8,"WEEK 8","TREATMENT","2013-01-23T13:00",55,"30 MIN POST",1,"PT30M","LIST A RECALL 6"],[259,"CDISCPILOT01","FT","CDISC001",259,"AVL0204","AVL02-List A Word 4","AVLT-REY","FORM 1","RECALLED","RECALLED",null,"",7,8,"WEEK 8","TREATMENT","2013-01-23T13:00",55,"30 MIN POST",1,"PT30M","LIST A RECALL 6"],[260,"CDISCPILOT01","FT","CDISC001",260,"AVL0205","AVL02-List A Word 5","AVLT-REY","FORM 1","NOT RECALLED","NOT RECALLED",null,"",7,8,"WEEK 8","TREATMENT","2013-01-23T13:00",55,"30 MIN POST",1,"PT30M","LIST A RECALL 6"],[261,"CDISCPILOT01","FT","CDISC001",261,"AVL0206","AVL02-List A Word 6","AVLT-REY","FORM 1","RECALLED","RECALLED",null,"",7,8,"WEEK 8","TREATMENT","2013-01-23T13:00",55,"30 MIN POST",1,"PT30M","LIST A RECALL 6"],[262,"CDISCPILOT01","FT","CDISC001",262,"AVL0207","AVL02-List A Word 7","AVLT-REY","FORM 1","NOT RECALLED","NOT RECALLED",null,"",7,8,"WEEK 8","TREATMENT","2013-01-23T13:00",55,"30 MIN POST",1,"PT30M","LIST A RECALL 6"],[263,"CDISCPILOT01","FT","CDISC001",263,"AVL0208","AVL02-List A Word 8","AVLT-REY","FORM 1","NOT RECALLED","NOT RECALLED",null,"",7,8,"WEEK 8","TREATMENT","2013-01-23T13:00",55,"30 MIN POST",1,"PT30M","LIST A RECALL 6"],[264,"CDISCPILOT01","FT","CDISC001",264,"AVL0209","AVL02-List A Word 9","AVLT-REY","FORM 1","RECALLED","RECALLED",null,"",7,8,"WEEK 8","TREATMENT","2013-01-23T13:00",55,"30 MIN POST",1,"PT30M","LIST A RECALL 6"],[265,"CDISCPILOT01","FT","CDISC001",265,"AVL0210","AVL02-List A Word 10","AVLT-REY","FORM 1","RECALLED","RECALLED",null,"",7,8,"WEEK 8","TREATMENT","2013-01-23T13:00",55,"30 MIN POST",1,"PT30M","LIST A RECALL 6"],[266,"CDISCPILOT01","FT","CDISC001",266,"AVL0211","AVL02-List A Word 11","AVLT-REY","FORM 1","RECALLED","RECALLED",null,"",7,8,"WEEK 8","TREATMENT","2013-01-23T13:00",55,"30 MIN POST",1,"PT30M","LIST A RECALL 6"],[267,"CDISCPILOT01","FT","CDISC001",267,"AVL0212","AVL02-List A Word 12","AVLT-REY","FORM 1","RECALLED","RECALLED",null,"",7,8,"WEEK 8","TREATMENT","2013-01-23T13:00",55,"30 MIN POST",1,"PT30M","LIST A RECALL 6"],[268,"CDISCPILOT01","FT","CDISC001",268,"AVL0213","AVL02-List A Word 13","AVLT-REY","FORM 1","NOT RECALLED","NOT RECALLED",null,"",7,8,"WEEK 8","TREATMENT","2013-01-23T13:00",55,"30 MIN POST",1,"PT30M","LIST A RECALL 6"],[269,"CDISCPILOT01","FT","CDISC001",269,"AVL0214","AVL02-List A Word 14","AVLT-REY","FORM 1","NOT RECALLED","NOT RECALLED",null,"",7,8,"WEEK 8","TREATMENT","2013-01-23T13:00",55,"30 MIN POST",1,"PT30M","LIST A RECALL 6"],[270,"CDISCPILOT01","FT","CDISC001",270,"AVL0215","AVL02-List A Word 15","AVLT-REY","FORM 1","NOT RECALLED","NOT RECALLED",null,"",7,8,"WEEK 8","TREATMENT","2013-01-23T13:00",55,"30 MIN POST",1,"PT30M","LIST A RECALL 6"],[271,"CDISCPILOT01","FT","CDISC001",271,"AVL0216","AVL02-List A Total","AVLT-REY","FORM 1","8","8",8,"",7,8,"WEEK 8","TREATMENT","2013-01-23T13:00",55,"30 MIN POST",1,"PT30M","LIST A RECALL 6"],[272,"CDISCPILOT01","FT","CDISC001",272,"AVL0217","AVL02-List A Intrusions","AVLT-REY","FORM 1","1","1",1,"",7,8,"WEEK 8","TREATMENT","2013-01-23T13:00",55,"30 MIN POST",1,"PT30M","LIST A RECALL 6"],[273,"CDISCPILOT01","FT","CDISC001",273,"AVL0201","AVL02-List A Word 1","AVLT-REY","FORM 1","RECALLED","RECALLED",null,"",1,201,"EARLY DISCONTINUATION RETRIEVAL","TREATMENT","2013-05-20T12:00",172,"",null,"",""],[274,"CDISCPILOT01","FT","CDISC001",274,"AVL0202","AVL02-List A Word 2","AVLT-REY","FORM 1","NOT RECALLED","NOT RECALLED",null,"",1,201,"EARLY DISCONTINUATION RETRIEVAL","TREATMENT","2013-05-20T12:00",172,"",null,"",""],[275,"CDISCPILOT01","FT","CDISC001",275,"AVL0203","AVL02-List A Word 3","AVLT-REY","FORM 1","RECALLED","RECALLED",null,"",1,201,"EARLY DISCONTINUATION RETRIEVAL","TREATMENT","2013-05-20T12:00",172,"",null,"",""],[276,"CDISCPILOT01","FT","CDISC001",276,"AVL0204","AVL02-List A Word 4","AVLT-REY","FORM 1","RECALLED","RECALLED",null,"",1,201,"EARLY DISCONTINUATION RETRIEVAL","TREATMENT","2013-05-20T12:00",172,"",null,"",""],[277,"CDISCPILOT01","FT","CDISC001",277,"AVL0205","AVL02-List A Word 5","AVLT-REY","FORM 1","RECALLED","RECALLED",null,"",1,201,"EARLY DISCONTINUATION RETRIEVAL","TREATMENT","2013-05-20T12:00",172,"",null,"",""],[278,"CDISCPILOT01","FT","CDISC001",278,"AVL0206","AVL02-List A Word 6","AVLT-REY","FORM 1","RECALLED","RECALLED",null,"",1,201,"EARLY DISCONTINUATION RETRIEVAL","TREATMENT","2013-05-20T12:00",172,"",null,"",""],[279,"CDISCPILOT01","FT","CDISC001",279,"AVL0207","AVL02-List A Word 7","AVLT-REY","FORM 1","RECALLED","RECALLED",null,"",1,201,"EARLY DISCONTINUATION RETRIEVAL","TREATMENT","2013-05-20T12:00",172,"",null,"",""],[280,"CDISCPILOT01","FT","CDISC001",280,"AVL0208","AVL02-List A Word 8","AVLT-REY","FORM 1","NOT RECALLED","NOT RECALLED",null,"",1,201,"EARLY DISCONTINUATION RETRIEVAL","TREATMENT","2013-05-20T12:00",172,"",null,"",""],[281,"CDISCPILOT01","FT","CDISC001",281,"AVL0209","AVL02-List A Word 9","AVLT-REY","FORM 1","NOT RECALLED","NOT RECALLED",null,"",1,201,"EARLY DISCONTINUATION RETRIEVAL","TREATMENT","2013-05-20T12:00",172,"",null,"",""],[282,"CDISCPILOT01","FT","CDISC001",282,"AVL0210","AVL02-List A Word 10","AVLT-REY","FORM 1","RECALLED","RECALLED",null,"",1,201,"EARLY DISCONTINUATION RETRIEVAL","TREATMENT","2013-05-20T12:00",172,"",null,"",""],[283,"CDISCPILOT01","FT","CDISC001",283,"AVL0211","AVL02-List A Word 11","AVLT-REY","FORM 1","RECALLED","RECALLED",null,"",1,201,"EARLY DISCONTINUATION RETRIEVAL","TREATMENT","2013-05-20T12:00",172,"",null,"",""],[284,"CDISCPILOT01","FT","CDISC001",284,"AVL0212","AVL02-List A Word 12","AVLT-REY","FORM 1","RECALLED","RECALLED",null,"",1,201,"EARLY DISCONTINUATION RETRIEVAL","TREATMENT","2013-05-20T12:00",172,"",null,"",""],[285,"CDISCPILOT01","FT","CDISC001",285,"AVL0213","AVL02-List A Word 13","AVLT-REY","FORM 1","NOT RECALLED","NOT RECALLED",null,"",1,201,"EARLY DISCONTINUATION RETRIEVAL","TREATMENT","2013-05-20T12:00",172,"",null,"",""],[286,"CDISCPILOT01","FT","CDISC001",286,"AVL0214","AVL02-List A Word 14","AVLT-REY","FORM 1","NOT RECALLED","NOT RECALLED",null,"",1,201,"EARLY DISCONTINUATION RETRIEVAL","TREATMENT","2013-05-20T12:00",172,"",null,"",""],[287,"CDISCPILOT01","FT","CDISC001",287,"AVL0215","AVL02-List A Word 15","AVLT-REY","FORM 1","NOT RECALLED","NOT RECALLED",null,"",1,201,"EARLY DISCONTINUATION RETRIEVAL","TREATMENT","2013-05-20T12:00",172,"",null,"",""],[288,"CDISCPILOT01","FT","CDISC001",288,"AVL0216","AVL02-List A Total","AVLT-REY","FORM 1","9","9",9,"",1,201,"EARLY DISCONTINUATION RETRIEVAL","TREATMENT","2013-05-20T12:00",172,"",null,"",""],[289,"CDISCPILOT01","FT","CDISC001",289,"AVL0217","AVL02-List A Intrusions","AVLT-REY","FORM 1","1","1",1,"",1,201,"EARLY DISCONTINUATION RETRIEVAL","TREATMENT","2013-05-20T12:00",172,"",null,"",""],[290,"CDISCPILOT01","FT","CDISC001",290,"AVL0201","AVL02-List A Word 1","AVLT-REY","FORM 1","RECALLED","RECALLED",null,"",2,201,"EARLY DISCONTINUATION RETRIEVAL","TREATMENT","2013-05-20T12:05",172,"",null,"",""],[291,"CDISCPILOT01","FT","CDISC001",291,"AVL0202","AVL02-List A Word 2","AVLT-REY","FORM 1","NOT RECALLED","NOT RECALLED",null,"",2,201,"EARLY DISCONTINUATION RETRIEVAL","TREATMENT","2013-05-20T12:05",172,"",null,"",""],[292,"CDISCPILOT01","FT","CDISC001",292,"AVL0203","AVL02-List A Word 3","AVLT-REY","FORM 1","RECALLED","RECALLED",null,"",2,201,"EARLY DISCONTINUATION RETRIEVAL","TREATMENT","2013-05-20T12:05",172,"",null,"",""],[293,"CDISCPILOT01","FT","CDISC001",293,"AVL0204","AVL02-List A Word 4","AVLT-REY","FORM 1","RECALLED","RECALLED",null,"",2,201,"EARLY DISCONTINUATION RETRIEVAL","TREATMENT","2013-05-20T12:05",172,"",null,"",""],[294,"CDISCPILOT01","FT","CDISC001",294,"AVL0205","AVL02-List A Word 5","AVLT-REY","FORM 1","RECALLED","RECALLED",null,"",2,201,"EARLY DISCONTINUATION RETRIEVAL","TREATMENT","2013-05-20T12:05",172,"",null,"",""],[295,"CDISCPILOT01","FT","CDISC001",295,"AVL0206","AVL02-List A Word 6","AVLT-REY","FORM 1","RECALLED","RECALLED",null,"",2,201,"EARLY DISCONTINUATION RETRIEVAL","TREATMENT","2013-05-20T12:05",172,"",null,"",""],[296,"CDISCPILOT01","FT","CDISC001",296,"AVL0207","AVL02-List A Word 7","AVLT-REY","FORM 1","RECALLED","RECALLED",null,"",2,201,"EARLY DISCONTINUATION RETRIEVAL","TREATMENT","2013-05-20T12:05",172,"",null,"",""],[297,"CDISCPILOT01","FT","CDISC001",297,"AVL0208","AVL02-List A Word 8","AVLT-REY","FORM 1","NOT RECALLED","NOT RECALLED",null,"",2,201,"EARLY DISCONTINUATION RETRIEVAL","TREATMENT","2013-05-20T12:05",172,"",null,"",""],[298,"CDISCPILOT01","FT","CDISC001",298,"AVL0209","AVL02-List A Word 9","AVLT-REY","FORM 1","NOT RECALLED","NOT RECALLED",null,"",2,201,"EARLY DISCONTINUATION RETRIEVAL","TREATMENT","2013-05-20T12:05",172,"",null,"",""],[299,"CDISCPILOT01","FT","CDISC001",299,"AVL0210","AVL02-List A Word 10","AVLT-REY","FORM 1","RECALLED","RECALLED",null,"",2,201,"EARLY DISCONTINUATION RETRIEVAL","TREATMENT","2013-05-20T12:05",172,"",null,"",""],[300,"CDISCPILOT01","FT","CDISC001",300,"AVL0211","AVL02-List A Word 11","AVLT-REY","FORM 1","RECALLED","RECALLED",null,"",2,201,"EARLY DISCONTINUATION RETRIEVAL","TREATMENT","2013-05-20T12:05",172,"",null,"",""],[301,"CDISCPILOT01","FT","CDISC001",301,"AVL0212","AVL02-List A Word 12","AVLT-REY","FORM 1","RECALLED","RECALLED",null,"",2,201,"EARLY DISCONTINUATION RETRIEVAL","TREATMENT","2013-05-20T12:05",172,"",null,"",""],[302,"CDISCPILOT01","FT","CDISC001",302,"AVL0213","AVL02-List A Word 13","AVLT-REY","FORM 1","NOT RECALLED","NOT RECALLED",null,"",2,201,"EARLY DISCONTINUATION RETRIEVAL","TREATMENT","2013-05-20T12:05",172,"",null,"",""],[303,"CDISCPILOT01","FT","CDISC001",303,"AVL0214","AVL02-List A Word 14","AVLT-REY","FORM 1","NOT RECALLED","NOT RECALLED",null,"",2,201,"EARLY DISCONTINUATION RETRIEVAL","TREATMENT","2013-05-20T12:05",172,"",null,"",""],[304,"CDISCPILOT01","FT","CDISC001",304,"AVL0215","AVL02-List A Word 15","AVLT-REY","FORM 1","NOT RECALLED","NOT RECALLED",null,"",2,201,"EARLY DISCONTINUATION RETRIEVAL","TREATMENT","2013-05-20T12:05",172,"",null,"",""],[305,"CDISCPILOT01","FT","CDISC001",305,"AVL0216","AVL02-List A Total","AVLT-REY","FORM 1","9","9",9,"",2,201,"EARLY DISCONTINUATION RETRIEVAL","TREATMENT","2013-05-20T12:05",172,"",null,"",""],[306,"CDISCPILOT01","FT","CDISC001",306,"AVL0217","AVL02-List A Intrusions","AVLT-REY","FORM 1","1","1",1,"",2,201,"EARLY DISCONTINUATION RETRIEVAL","TREATMENT","2013-05-20T12:05",172,"",null,"",""],[307,"CDISCPILOT01","FT","CDISC001",307,"AVL0201","AVL02-List A Word 1","AVLT-REY","FORM 1","RECALLED","RECALLED",null,"",3,201,"EARLY DISCONTINUATION RETRIEVAL","TREATMENT","2013-05-20T12:10",172,"",null,"",""],[308,"CDISCPILOT01","FT","CDISC001",308,"AVL0202","AVL02-List A Word 2","AVLT-REY","FORM 1","NOT RECALLED","NOT RECALLED",null,"",3,201,"EARLY DISCONTINUATION RETRIEVAL","TREATMENT","2013-05-20T12:10",172,"",null,"",""],[309,"CDISCPILOT01","FT","CDISC001",309,"AVL0203","AVL02-List A Word 3","AVLT-REY","FORM 1","RECALLED","RECALLED",null,"",3,201,"EARLY DISCONTINUATION RETRIEVAL","TREATMENT","2013-05-20T12:10",172,"",null,"",""],[310,"CDISCPILOT01","FT","CDISC001",310,"AVL0204","AVL02-List A Word 4","AVLT-REY","FORM 1","RECALLED","RECALLED",null,"",3,201,"EARLY DISCONTINUATION RETRIEVAL","TREATMENT","2013-05-20T12:10",172,"",null,"",""],[311,"CDISCPILOT01","FT","CDISC001",311,"AVL0205","AVL02-List A Word 5","AVLT-REY","FORM 1","RECALLED","RECALLED",null,"",3,201,"EARLY DISCONTINUATION RETRIEVAL","TREATMENT","2013-05-20T12:10",172,"",null,"",""],[312,"CDISCPILOT01","FT","CDISC001",312,"AVL0206","AVL02-List A Word 6","AVLT-REY","FORM 1","RECALLED","RECALLED",null,"",3,201,"EARLY DISCONTINUATION RETRIEVAL","TREATMENT","2013-05-20T12:10",172,"",null,"",""],[313,"CDISCPILOT01","FT","CDISC001",313,"AVL0207","AVL02-List A Word 7","AVLT-REY","FORM 1","RECALLED","RECALLED",null,"",3,201,"EARLY DISCONTINUATION RETRIEVAL","TREATMENT","2013-05-20T12:10",172,"",null,"",""],[314,"CDISCPILOT01","FT","CDISC001",314,"AVL0208","AVL02-List A Word 8","AVLT-REY","FORM 1","RECALLED","RECALLED",null,"",3,201,"EARLY DISCONTINUATION RETRIEVAL","TREATMENT","2013-05-20T12:10",172,"",null,"",""],[315,"CDISCPILOT01","FT","CDISC001",315,"AVL0209","AVL02-List A Word 9","AVLT-REY","FORM 1","NOT RECALLED","NOT RECALLED",null,"",3,201,"EARLY DISCONTINUATION RETRIEVAL","TREATMENT","2013-05-20T12:10",172,"",null,"",""],[316,"CDISCPILOT01","FT","CDISC001",316,"AVL0210","AVL02-List A Word 10","AVLT-REY","FORM 1","RECALLED","RECALLED",null,"",3,201,"EARLY DISCONTINUATION RETRIEVAL","TREATMENT","2013-05-20T12:10",172,"",null,"",""],[317,"CDISCPILOT01","FT","CDISC001",317,"AVL0211","AVL02-List A Word 11","AVLT-REY","FORM 1","RECALLED","RECALLED",null,"",3,201,"EARLY DISCONTINUATION RETRIEVAL","TREATMENT","2013-05-20T12:10",172,"",null,"",""],[318,"CDISCPILOT01","FT","CDISC001",318,"AVL0212","AVL02-List A Word 12","AVLT-REY","FORM 1","RECALLED","RECALLED",null,"",3,201,"EARLY DISCONTINUATION RETRIEVAL","TREATMENT","2013-05-20T12:10",172,"",null,"",""],[319,"CDISCPILOT01","FT","CDISC001",319,"AVL0213","AVL02-List A Word 13","AVLT-REY","FORM 1","NOT RECALLED","NOT RECALLED",null,"",3,201,"EARLY DISCONTINUATION RETRIEVAL","TREATMENT","2013-05-20T12:10",172,"",null,"",""],[320,"CDISCPILOT01","FT","CDISC001",320,"AVL0214","AVL02-List A Word 14","AVLT-REY","FORM 1","NOT RECALLED","NOT RECALLED",null,"",3,201,"EARLY DISCONTINUATION RETRIEVAL","TREATMENT","2013-05-20T12:10",172,"",null,"",""],[321,"CDISCPILOT01","FT","CDISC001",321,"AVL0215","AVL02-List A Word 15","AVLT-REY","FORM 1","NOT RECALLED","NOT RECALLED",null,"",3,201,"EARLY DISCONTINUATION RETRIEVAL","TREATMENT","2013-05-20T12:10",172,"",null,"",""],[322,"CDISCPILOT01","FT","CDISC001",322,"AVL0216","AVL02-List A Total","AVLT-REY","FORM 1","10","10",10,"",3,201,"EARLY DISCONTINUATION RETRIEVAL","TREATMENT","2013-05-20T12:10",172,"",null,"",""],[323,"CDISCPILOT01","FT","CDISC001",323,"AVL0217","AVL02-List A Intrusions","AVLT-REY","FORM 1","2","2",2,"",3,201,"EARLY DISCONTINUATION RETRIEVAL","TREATMENT","2013-05-20T12:10",172,"",null,"",""],[324,"CDISCPILOT01","FT","CDISC001",324,"AVL0201","AVL02-List A Word 1","AVLT-REY","FORM 1","RECALLED","RECALLED",null,"",4,201,"EARLY DISCONTINUATION RETRIEVAL","TREATMENT","2013-05-20T12:15",172,"",null,"",""],[325,"CDISCPILOT01","FT","CDISC001",325,"AVL0202","AVL02-List A Word 2","AVLT-REY","FORM 1","NOT RECALLED","NOT RECALLED",null,"",4,201,"EARLY DISCONTINUATION RETRIEVAL","TREATMENT","2013-05-20T12:15",172,"",null,"",""],[326,"CDISCPILOT01","FT","CDISC001",326,"AVL0203","AVL02-List A Word 3","AVLT-REY","FORM 1","RECALLED","RECALLED",null,"",4,201,"EARLY DISCONTINUATION RETRIEVAL","TREATMENT","2013-05-20T12:15",172,"",null,"",""],[327,"CDISCPILOT01","FT","CDISC001",327,"AVL0204","AVL02-List A Word 4","AVLT-REY","FORM 1","RECALLED","RECALLED",null,"",4,201,"EARLY DISCONTINUATION RETRIEVAL","TREATMENT","2013-05-20T12:15",172,"",null,"",""],[328,"CDISCPILOT01","FT","CDISC001",328,"AVL0205","AVL02-List A Word 5","AVLT-REY","FORM 1","RECALLED","RECALLED",null,"",4,201,"EARLY DISCONTINUATION RETRIEVAL","TREATMENT","2013-05-20T12:15",172,"",null,"",""],[329,"CDISCPILOT01","FT","CDISC001",329,"AVL0206","AVL02-List A Word 6","AVLT-REY","FORM 1","RECALLED","RECALLED",null,"",4,201,"EARLY DISCONTINUATION RETRIEVAL","TREATMENT","2013-05-20T12:15",172,"",null,"",""],[330,"CDISCPILOT01","FT","CDISC001",330,"AVL0207","AVL02-List A Word 7","AVLT-REY","FORM 1","RECALLED","RECALLED",null,"",4,201,"EARLY DISCONTINUATION RETRIEVAL","TREATMENT","2013-05-20T12:15",172,"",null,"",""],[331,"CDISCPILOT01","FT","CDISC001",331,"AVL0208","AVL02-List A Word 8","AVLT-REY","FORM 1","RECALLED","RECALLED",null,"",4,201,"EARLY DISCONTINUATION RETRIEVAL","TREATMENT","2013-05-20T12:15",172,"",null,"",""],[332,"CDISCPILOT01","FT","CDISC001",332,"AVL0209","AVL02-List A Word 9","AVLT-REY","FORM 1","RECALLED","RECALLED",null,"",4,201,"EARLY DISCONTINUATION RETRIEVAL","TREATMENT","2013-05-20T12:15",172,"",null,"",""],[333,"CDISCPILOT01","FT","CDISC001",333,"AVL0210","AVL02-List A Word 10","AVLT-REY","FORM 1","RECALLED","RECALLED",null,"",4,201,"EARLY DISCONTINUATION RETRIEVAL","TREATMENT","2013-05-20T12:15",172,"",null,"",""],[334,"CDISCPILOT01","FT","CDISC001",334,"AVL0211","AVL02-List A Word 11","AVLT-REY","FORM 1","RECALLED","RECALLED",null,"",4,201,"EARLY DISCONTINUATION RETRIEVAL","TREATMENT","2013-05-20T12:15",172,"",null,"",""],[335,"CDISCPILOT01","FT","CDISC001",335,"AVL0212","AVL02-List A Word 12","AVLT-REY","FORM 1","RECALLED","RECALLED",null,"",4,201,"EARLY DISCONTINUATION RETRIEVAL","TREATMENT","2013-05-20T12:15",172,"",null,"",""],[336,"CDISCPILOT01","FT","CDISC001",336,"AVL0213","AVL02-List A Word 13","AVLT-REY","FORM 1","NOT RECALLED","NOT RECALLED",null,"",4,201,"EARLY DISCONTINUATION RETRIEVAL","TREATMENT","2013-05-20T12:15",172,"",null,"",""],[337,"CDISCPILOT01","FT","CDISC001",337,"AVL0214","AVL02-List A Word 14","AVLT-REY","FORM 1","NOT RECALLED","NOT RECALLED",null,"",4,201,"EARLY DISCONTINUATION RETRIEVAL","TREATMENT","2013-05-20T12:15",172,"",null,"",""],[338,"CDISCPILOT01","FT","CDISC001",338,"AVL0215","AVL02-List A Word 15","AVLT-REY","FORM 1","NOT RECALLED","NOT RECALLED",null,"",4,201,"EARLY DISCONTINUATION RETRIEVAL","TREATMENT","2013-05-20T12:15",172,"",null,"",""],[339,"CDISCPILOT01","FT","CDISC001",339,"AVL0216","AVL02-List A Total","AVLT-REY","FORM 1","11","11",11,"",4,201,"EARLY DISCONTINUATION RETRIEVAL","TREATMENT","2013-05-20T12:15",172,"",null,"",""],[340,"CDISCPILOT01","FT","CDISC001",340,"AVL0217","AVL02-List A Intrusions","AVLT-REY","FORM 1","2","2",2,"",4,201,"EARLY DISCONTINUATION RETRIEVAL","TREATMENT","2013-05-20T12:15",172,"",null,"",""],[341,"CDISCPILOT01","FT","CDISC001",341,"AVL0201","AVL02-List A Word 1","AVLT-REY","FORM 1","RECALLED","RECALLED",null,"",5,201,"EARLY DISCONTINUATION RETRIEVAL","TREATMENT","2013-05-20T12:20",172,"",null,"",""],[342,"CDISCPILOT01","FT","CDISC001",342,"AVL0202","AVL02-List A Word 2","AVLT-REY","FORM 1","NOT RECALLED","NOT RECALLED",null,"",5,201,"EARLY DISCONTINUATION RETRIEVAL","TREATMENT","2013-05-20T12:20",172,"",null,"",""],[343,"CDISCPILOT01","FT","CDISC001",343,"AVL0203","AVL02-List A Word 3","AVLT-REY","FORM 1","RECALLED","RECALLED",null,"",5,201,"EARLY DISCONTINUATION RETRIEVAL","TREATMENT","2013-05-20T12:20",172,"",null,"",""],[344,"CDISCPILOT01","FT","CDISC001",344,"AVL0204","AVL02-List A Word 4","AVLT-REY","FORM 1","RECALLED","RECALLED",null,"",5,201,"EARLY DISCONTINUATION RETRIEVAL","TREATMENT","2013-05-20T12:20",172,"",null,"",""],[345,"CDISCPILOT01","FT","CDISC001",345,"AVL0205","AVL02-List A Word 5","AVLT-REY","FORM 1","RECALLED","RECALLED",null,"",5,201,"EARLY DISCONTINUATION RETRIEVAL","TREATMENT","2013-05-20T12:20",172,"",null,"",""],[346,"CDISCPILOT01","FT","CDISC001",346,"AVL0206","AVL02-List A Word 6","AVLT-REY","FORM 1","RECALLED","RECALLED",null,"",5,201,"EARLY DISCONTINUATION RETRIEVAL","TREATMENT","2013-05-20T12:20",172,"",null,"",""],[347,"CDISCPILOT01","FT","CDISC001",347,"AVL0207","AVL02-List A Word 7","AVLT-REY","FORM 1","RECALLED","RECALLED",null,"",5,201,"EARLY DISCONTINUATION RETRIEVAL","TREATMENT","2013-05-20T12:20",172,"",null,"",""],[348,"CDISCPILOT01","FT","CDISC001",348,"AVL0208","AVL02-List A Word 8","AVLT-REY","FORM 1","RECALLED","RECALLED",null,"",5,201,"EARLY DISCONTINUATION RETRIEVAL","TREATMENT","2013-05-20T12:20",172,"",null,"",""],[349,"CDISCPILOT01","FT","CDISC001",349,"AVL0209","AVL02-List A Word 9","AVLT-REY","FORM 1","RECALLED","RECALLED",null,"",5,201,"EARLY DISCONTINUATION RETRIEVAL","TREATMENT","2013-05-20T12:20",172,"",null,"",""],[350,"CDISCPILOT01","FT","CDISC001",350,"AVL0210","AVL02-List A Word 10","AVLT-REY","FORM 1","RECALLED","RECALLED",null,"",5,201,"EARLY DISCONTINUATION RETRIEVAL","TREATMENT","2013-05-20T12:20",172,"",null,"",""],[351,"CDISCPILOT01","FT","CDISC001",351,"AVL0211","AVL02-List A Word 11","AVLT-REY","FORM 1","RECALLED","RECALLED",null,"",5,201,"EARLY DISCONTINUATION RETRIEVAL","TREATMENT","2013-05-20T12:20",172,"",null,"",""],[352,"CDISCPILOT01","FT","CDISC001",352,"AVL0212","AVL02-List A Word 12","AVLT-REY","FORM 1","RECALLED","RECALLED",null,"",5,201,"EARLY DISCONTINUATION RETRIEVAL","TREATMENT","2013-05-20T12:20",172,"",null,"",""],[353,"CDISCPILOT01","FT","CDISC001",353,"AVL0213","AVL02-List A Word 13","AVLT-REY","FORM 1","NOT RECALLED","NOT RECALLED",null,"",5,201,"EARLY DISCONTINUATION RETRIEVAL","TREATMENT","2013-05-20T12:20",172,"",null,"",""],[354,"CDISCPILOT01","FT","CDISC001",354,"AVL0214","AVL02-List A Word 14","AVLT-REY","FORM 1","NOT RECALLED","NOT RECALLED",null,"",5,201,"EARLY DISCONTINUATION RETRIEVAL","TREATMENT","2013-05-20T12:20",172,"",null,"",""],[355,"CDISCPILOT01","FT","CDISC001",355,"AVL0215","AVL02-List A Word 15","AVLT-REY","FORM 1","NOT RECALLED","NOT RECALLED",null,"",5,201,"EARLY DISCONTINUATION RETRIEVAL","TREATMENT","2013-05-20T12:20",172,"",null,"",""],[356,"CDISCPILOT01","FT","CDISC001",356,"AVL0216","AVL02-List A Total","AVLT-REY","FORM 1","11","11",11,"",5,201,"EARLY DISCONTINUATION RETRIEVAL","TREATMENT","2013-05-20T12:20",172,"",null,"",""],[357,"CDISCPILOT01","FT","CDISC001",357,"AVL0217","AVL02-List A Intrusions","AVLT-REY","FORM 1","2","2",2,"",5,201,"EARLY DISCONTINUATION RETRIEVAL","TREATMENT","2013-05-20T12:20",172,"",null,"",""],[358,"CDISCPILOT01","FT","CDISC001",358,"AVL0218","AVL02-List B Word 1","AVLT-REY","FORM 1","RECALLED","RECALLED",null,"",null,201,"EARLY DISCONTINUATION RETRIEVAL","TREATMENT","2013-05-20T12:25",172,"",null,"",""],[359,"CDISCPILOT01","FT","CDISC001",359,"AVL0219","AVL02-List B Word 2","AVLT-REY","FORM 1","RECALLED","RECALLED",null,"",null,201,"EARLY DISCONTINUATION RETRIEVAL","TREATMENT","2013-05-20T12:25",172,"",null,"",""],[360,"CDISCPILOT01","FT","CDISC001",360,"AVL0220","AVL02-List B Word 3","AVLT-REY","FORM 1","RECALLED","RECALLED",null,"",null,201,"EARLY DISCONTINUATION RETRIEVAL","TREATMENT","2013-05-20T12:25",172,"",null,"",""],[361,"CDISCPILOT01","FT","CDISC001",361,"AVL0221","AVL02-List B Word 4","AVLT-REY","FORM 1","RECALLED","RECALLED",null,"",null,201,"EARLY DISCONTINUATION RETRIEVAL","TREATMENT","2013-05-20T12:25",172,"",null,"",""],[362,"CDISCPILOT01","FT","CDISC001",362,"AVL0222","AVL02-List B Word 5","AVLT-REY","FORM 1","RECALLED","RECALLED",null,"",null,201,"EARLY DISCONTINUATION RETRIEVAL","TREATMENT","2013-05-20T12:25",172,"",null,"",""],[363,"CDISCPILOT01","FT","CDISC001",363,"AVL0223","AVL02-List B Word 6","AVLT-REY","FORM 1","RECALLED","RECALLED",null,"",null,201,"EARLY DISCONTINUATION RETRIEVAL","TREATMENT","2013-05-20T12:25",172,"",null,"",""],[364,"CDISCPILOT01","FT","CDISC001",364,"AVL0224","AVL02-List B Word 7","AVLT-REY","FORM 1","RECALLED","RECALLED",null,"",null,201,"EARLY DISCONTINUATION RETRIEVAL","TREATMENT","2013-05-20T12:25",172,"",null,"",""],[365,"CDISCPILOT01","FT","CDISC001",365,"AVL0225","AVL02-List B Word 8","AVLT-REY","FORM 1","RECALLED","RECALLED",null,"",null,201,"EARLY DISCONTINUATION RETRIEVAL","TREATMENT","2013-05-20T12:25",172,"",null,"",""],[366,"CDISCPILOT01","FT","CDISC001",366,"AVL0226","AVL02-List B Word 9","AVLT-REY","FORM 1","RECALLED","RECALLED",null,"",null,201,"EARLY DISCONTINUATION RETRIEVAL","TREATMENT","2013-05-20T12:25",172,"",null,"",""],[367,"CDISCPILOT01","FT","CDISC001",367,"AVL0227","AVL02-List B Word 10","AVLT-REY","FORM 1","NOT RECALLED","NOT RECALLED",null,"",null,201,"EARLY DISCONTINUATION RETRIEVAL","TREATMENT","2013-05-20T12:25",172,"",null,"",""],[368,"CDISCPILOT01","FT","CDISC001",368,"AVL0228","AVL02-List B Word 11","AVLT-REY","FORM 1","NOT RECALLED","NOT RECALLED",null,"",null,201,"EARLY DISCONTINUATION RETRIEVAL","TREATMENT","2013-05-20T12:25",172,"",null,"",""],[369,"CDISCPILOT01","FT","CDISC001",369,"AVL0229","AVL02-List B Word 12","AVLT-REY","FORM 1","NOT RECALLED","NOT RECALLED",null,"",null,201,"EARLY DISCONTINUATION RETRIEVAL","TREATMENT","2013-05-20T12:25",172,"",null,"",""],[370,"CDISCPILOT01","FT","CDISC001",370,"AVL0230","AVL02-List B Word 13","AVLT-REY","FORM 1","RECALLED","RECALLED",null,"",null,201,"EARLY DISCONTINUATION RETRIEVAL","TREATMENT","2013-05-20T12:25",172,"",null,"",""],[371,"CDISCPILOT01","FT","CDISC001",371,"AVL0231","AVL02-List B Word 14","AVLT-REY","FORM 1","RECALLED","RECALLED",null,"",null,201,"EARLY DISCONTINUATION RETRIEVAL","TREATMENT","2013-05-20T12:25",172,"",null,"",""],[372,"CDISCPILOT01","FT","CDISC001",372,"AVL0232","AVL02-List B Word 15","AVLT-REY","FORM 1","RECALLED","RECALLED",null,"",null,201,"EARLY DISCONTINUATION RETRIEVAL","TREATMENT","2013-05-20T12:25",172,"",null,"",""],[373,"CDISCPILOT01","FT","CDISC001",373,"AVL0233","AVL02- List B Total","AVLT-REY","FORM 1","12","12",12,"",null,201,"EARLY DISCONTINUATION RETRIEVAL","TREATMENT","2013-05-20T12:25",172,"",null,"",""],[374,"CDISCPILOT01","FT","CDISC001",374,"AVL0234","AVL02-List B Intrusions","AVLT-REY","FORM 1","0","0",0,"",null,201,"EARLY DISCONTINUATION RETRIEVAL","TREATMENT","2013-05-20T12:25",172,"",null,"",""],[375,"CDISCPILOT01","FT","CDISC001",375,"AVL0201","AVL02-List A Word 1","AVLT-REY","FORM 1","RECALLED","RECALLED",null,"",6,201,"EARLY DISCONTINUATION RETRIEVAL","TREATMENT","2013-05-20T12:30",172,"",null,"",""],[376,"CDISCPILOT01","FT","CDISC001",376,"AVL0202","AVL02-List A Word 2","AVLT-REY","FORM 1","NOT RECALLED","NOT RECALLED",null,"",6,201,"EARLY DISCONTINUATION RETRIEVAL","TREATMENT","2013-05-20T12:30",172,"",null,"",""],[377,"CDISCPILOT01","FT","CDISC001",377,"AVL0203","AVL02-List A Word 3","AVLT-REY","FORM 1","RECALLED","RECALLED",null,"",6,201,"EARLY DISCONTINUATION RETRIEVAL","TREATMENT","2013-05-20T12:30",172,"",null,"",""],[378,"CDISCPILOT01","FT","CDISC001",378,"AVL0204","AVL02-List A Word 4","AVLT-REY","FORM 1","RECALLED","RECALLED",null,"",6,201,"EARLY DISCONTINUATION RETRIEVAL","TREATMENT","2013-05-20T12:30",172,"",null,"",""],[379,"CDISCPILOT01","FT","CDISC001",379,"AVL0205","AVL02-List A Word 5","AVLT-REY","FORM 1","RECALLED","RECALLED",null,"",6,201,"EARLY DISCONTINUATION RETRIEVAL","TREATMENT","2013-05-20T12:30",172,"",null,"",""],[380,"CDISCPILOT01","FT","CDISC001",380,"AVL0206","AVL02-List A Word 6","AVLT-REY","FORM 1","RECALLED","RECALLED",null,"",6,201,"EARLY DISCONTINUATION RETRIEVAL","TREATMENT","2013-05-20T12:30",172,"",null,"",""],[381,"CDISCPILOT01","FT","CDISC001",381,"AVL0207","AVL02-List A Word 7","AVLT-REY","FORM 1","NOT RECALLED","NOT RECALLED",null,"",6,201,"EARLY DISCONTINUATION RETRIEVAL","TREATMENT","2013-05-20T12:30",172,"",null,"",""],[382,"CDISCPILOT01","FT","CDISC001",382,"AVL0208","AVL02-List A Word 8","AVLT-REY","FORM 1","RECALLED","RECALLED",null,"",6,201,"EARLY DISCONTINUATION RETRIEVAL","TREATMENT","2013-05-20T12:30",172,"",null,"",""],[383,"CDISCPILOT01","FT","CDISC001",383,"AVL0209","AVL02-List A Word 9","AVLT-REY","FORM 1","RECALLED","RECALLED",null,"",6,201,"EARLY DISCONTINUATION RETRIEVAL","TREATMENT","2013-05-20T12:30",172,"",null,"",""],[384,"CDISCPILOT01","FT","CDISC001",384,"AVL0210","AVL02-List A Word 10","AVLT-REY","FORM 1","RECALLED","RECALLED",null,"",6,201,"EARLY DISCONTINUATION RETRIEVAL","TREATMENT","2013-05-20T12:30",172,"",null,"",""],[385,"CDISCPILOT01","FT","CDISC001",385,"AVL0211","AVL02-List A Word 11","AVLT-REY","FORM 1","RECALLED","RECALLED",null,"",6,201,"EARLY DISCONTINUATION RETRIEVAL","TREATMENT","2013-05-20T12:30",172,"",null,"",""],[386,"CDISCPILOT01","FT","CDISC001",386,"AVL0212","AVL02-List A Word 12","AVLT-REY","FORM 1","RECALLED","RECALLED",null,"",6,201,"EARLY DISCONTINUATION RETRIEVAL","TREATMENT","2013-05-20T12:30",172,"",null,"",""],[387,"CDISCPILOT01","FT","CDISC001",387,"AVL0213","AVL02-List A Word 13","AVLT-REY","FORM 1","NOT RECALLED","NOT RECALLED",null,"",6,201,"EARLY DISCONTINUATION RETRIEVAL","TREATMENT","2013-05-20T12:30",172,"",null,"",""],[388,"CDISCPILOT01","FT","CDISC001",388,"AVL0214","AVL02-List A Word 14","AVLT-REY","FORM 1","NOT RECALLED","NOT RECALLED",null,"",6,201,"EARLY DISCONTINUATION RETRIEVAL","TREATMENT","2013-05-20T12:30",172,"",null,"",""],[389,"CDISCPILOT01","FT","CDISC001",389,"AVL0215","AVL02-List A Word 15","AVLT-REY","FORM 1","NOT RECALLED","NOT RECALLED",null,"",6,201,"EARLY DISCONTINUATION RETRIEVAL","TREATMENT","2013-05-20T12:30",172,"",null,"",""],[390,"CDISCPILOT01","FT","CDISC001",390,"AVL0216","AVL02-List A Total","AVLT-REY","FORM 1","10","10",10,"",6,201,"EARLY DISCONTINUATION RETRIEVAL","TREATMENT","2013-05-20T12:30",172,"",null,"",""],[391,"CDISCPILOT01","FT","CDISC001",391,"AVL0217","AVL02-List A Intrusions","AVLT-REY","FORM 1","2","2",2,"",6,201,"EARLY DISCONTINUATION RETRIEVAL","TREATMENT","2013-05-20T12:30",172,"",null,"",""],[392,"CDISCPILOT01","FT","CDISC001",392,"AVL0201","AVL02-List A Word 1","AVLT-REY","FORM 1","RECALLED","RECALLED",null,"",7,201,"EARLY DISCONTINUATION RETRIEVAL","TREATMENT","2013-05-20T13:00",172,"30 MIN POST",1,"PT30M","LIST A RECALL 6"],[393,"CDISCPILOT01","FT","CDISC001",393,"AVL0202","AVL02-List A Word 2","AVLT-REY","FORM 1","NOT RECALLED","NOT RECALLED",null,"",7,201,"EARLY DISCONTINUATION RETRIEVAL","TREATMENT","2013-05-20T13:00",172,"30 MIN POST",1,"PT30M","LIST A RECALL 6"],[394,"CDISCPILOT01","FT","CDISC001",394,"AVL0203","AVL02-List A Word 3","AVLT-REY","FORM 1","RECALLED","RECALLED",null,"",7,201,"EARLY DISCONTINUATION RETRIEVAL","TREATMENT","2013-05-20T13:00",172,"30 MIN POST",1,"PT30M","LIST A RECALL 6"],[395,"CDISCPILOT01","FT","CDISC001",395,"AVL0204","AVL02-List A Word 4","AVLT-REY","FORM 1","RECALLED","RECALLED",null,"",7,201,"EARLY DISCONTINUATION RETRIEVAL","TREATMENT","2013-05-20T13:00",172,"30 MIN POST",1,"PT30M","LIST A RECALL 6"],[396,"CDISCPILOT01","FT","CDISC001",396,"AVL0205","AVL02-List A Word 5","AVLT-REY","FORM 1","NOT RECALLED","NOT RECALLED",null,"",7,201,"EARLY DISCONTINUATION RETRIEVAL","TREATMENT","2013-05-20T13:00",172,"30 MIN POST",1,"PT30M","LIST A RECALL 6"],[397,"CDISCPILOT01","FT","CDISC001",397,"AVL0206","AVL02-List A Word 6","AVLT-REY","FORM 1","RECALLED","RECALLED",null,"",7,201,"EARLY DISCONTINUATION RETRIEVAL","TREATMENT","2013-05-20T13:00",172,"30 MIN POST",1,"PT30M","LIST A RECALL 6"],[398,"CDISCPILOT01","FT","CDISC001",398,"AVL0207","AVL02-List A Word 7","AVLT-REY","FORM 1","NOT RECALLED","NOT RECALLED",null,"",7,201,"EARLY DISCONTINUATION RETRIEVAL","TREATMENT","2013-05-20T13:00",172,"30 MIN POST",1,"PT30M","LIST A RECALL 6"],[399,"CDISCPILOT01","FT","CDISC001",399,"AVL0208","AVL02-List A Word 8","AVLT-REY","FORM 1","RECALLED","RECALLED",null,"",7,201,"EARLY DISCONTINUATION RETRIEVAL","TREATMENT","2013-05-20T13:00",172,"30 MIN POST",1,"PT30M","LIST A RECALL 6"],[400,"CDISCPILOT01","FT","CDISC001",400,"AVL0209","AVL02-List A Word 9","AVLT-REY","FORM 1","RECALLED","RECALLED",null,"",7,201,"EARLY DISCONTINUATION RETRIEVAL","TREATMENT","2013-05-20T13:00",172,"30 MIN POST",1,"PT30M","LIST A RECALL 6"],[401,"CDISCPILOT01","FT","CDISC001",401,"AVL0210","AVL02-List A Word 10","AVLT-REY","FORM 1","RECALLED","RECALLED",null,"",7,201,"EARLY DISCONTINUATION RETRIEVAL","TREATMENT","2013-05-20T13:00",172,"30 MIN POST",1,"PT30M","LIST A RECALL 6"],[402,"CDISCPILOT01","FT","CDISC001",402,"AVL0211","AVL02-List A Word 11","AVLT-REY","FORM 1","RECALLED","RECALLED",null,"",7,201,"EARLY DISCONTINUATION RETRIEVAL","TREATMENT","2013-05-20T13:00",172,"30 MIN POST",1,"PT30M","LIST A RECALL 6"],[403,"CDISCPILOT01","FT","CDISC001",403,"AVL0212","AVL02-List A Word 12","AVLT-REY","FORM 1","RECALLED","RECALLED",null,"",7,201,"EARLY DISCONTINUATION RETRIEVAL","TREATMENT","2013-05-20T13:00",172,"30 MIN POST",1,"PT30M","LIST A RECALL 6"],[404,"CDISCPILOT01","FT","CDISC001",404,"AVL0213","AVL02-List A Word 13","AVLT-REY","FORM 1","NOT RECALLED","NOT RECALLED",null,"",7,201,"EARLY DISCONTINUATION RETRIEVAL","TREATMENT","2013-05-20T13:00",172,"30 MIN POST",1,"PT30M","LIST A RECALL 6"],[405,"CDISCPILOT01","FT","CDISC001",405,"AVL0214","AVL02-List A Word 14","AVLT-REY","FORM 1","NOT RECALLED","NOT RECALLED",null,"",7,201,"EARLY DISCONTINUATION RETRIEVAL","TREATMENT","2013-05-20T13:00",172,"30 MIN POST",1,"PT30M","LIST A RECALL 6"],[406,"CDISCPILOT01","FT","CDISC001",406,"AVL0215","AVL02-List A Word 15","AVLT-REY","FORM 1","NOT RECALLED","NOT RECALLED",null,"",7,201,"EARLY DISCONTINUATION RETRIEVAL","TREATMENT","2013-05-20T13:00",172,"30 MIN POST",1,"PT30M","LIST A RECALL 6"],[407,"CDISCPILOT01","FT","CDISC001",407,"AVL0216","AVL02-List A Total","AVLT-REY","FORM 1","9","9",9,"",7,201,"EARLY DISCONTINUATION RETRIEVAL","TREATMENT","2013-05-20T13:00",172,"30 MIN POST",1,"PT30M","LIST A RECALL 6"],[408,"CDISCPILOT01","FT","CDISC001",408,"AVL0217","AVL02-List A Intrusions","AVLT-REY","FORM 1","1","1",1,"",7,201,"EARLY DISCONTINUATION RETRIEVAL","TREATMENT","2013-05-20T13:00",172,"30 MIN POST",1,"PT30M","LIST A RECALL 6"],[409,"CDISCPILOT01","FT","CDISC002",1,"AVL0201","AVL02-List A Word 1","AVLT-REY","FORM 1","RECALLED","RECALLED",null,"Y",1,2,"SCREENING 2","SCREENING","2012-11-14T12:00",-1,"",null,"",""],[410,"CDISCPILOT01","FT","CDISC002",2,"AVL0202","AVL02-List A Word 2","AVLT-REY","FORM 1","RECALLED","RECALLED",null,"Y",1,2,"SCREENING 2","SCREENING","2012-11-14T12:00",-1,"",null,"",""],[411,"CDISCPILOT01","FT","CDISC002",3,"AVL0203","AVL02-List A Word 3","AVLT-REY","FORM 1","RECALLED","RECALLED",null,"Y",1,2,"SCREENING 2","SCREENING","2012-11-14T12:00",-1,"",null,"",""],[412,"CDISCPILOT01","FT","CDISC002",4,"AVL0204","AVL02-List A Word 4","AVLT-REY","FORM 1","NOT RECALLED","NOT RECALLED",null,"Y",1,2,"SCREENING 2","SCREENING","2012-11-14T12:00",-1,"",null,"",""],[413,"CDISCPILOT01","FT","CDISC002",5,"AVL0205","AVL02-List A Word 5","AVLT-REY","FORM 1","NOT RECALLED","NOT RECALLED",null,"Y",1,2,"SCREENING 2","SCREENING","2012-11-14T12:00",-1,"",null,"",""],[414,"CDISCPILOT01","FT","CDISC002",6,"AVL0206","AVL02-List A Word 6","AVLT-REY","FORM 1","NOT RECALLED","NOT RECALLED",null,"Y",1,2,"SCREENING 2","SCREENING","2012-11-14T12:00",-1,"",null,"",""],[415,"CDISCPILOT01","FT","CDISC002",7,"AVL0207","AVL02-List A Word 7","AVLT-REY","FORM 1","RECALLED","RECALLED",null,"Y",1,2,"SCREENING 2","SCREENING","2012-11-14T12:00",-1,"",null,"",""],[416,"CDISCPILOT01","FT","CDISC002",8,"AVL0208","AVL02-List A Word 8","AVLT-REY","FORM 1","NOT RECALLED","NOT RECALLED",null,"Y",1,2,"SCREENING 2","SCREENING","2012-11-14T12:00",-1,"",null,"",""],[417,"CDISCPILOT01","FT","CDISC002",9,"AVL0209","AVL02-List A Word 9","AVLT-REY","FORM 1","NOT RECALLED","NOT RECALLED",null,"Y",1,2,"SCREENING 2","SCREENING","2012-11-14T12:00",-1,"",null,"",""],[418,"CDISCPILOT01","FT","CDISC002",10,"AVL0210","AVL02-List A Word 10","AVLT-REY","FORM 1","NOT RECALLED","NOT RECALLED",null,"Y",1,2,"SCREENING 2","SCREENING","2012-11-14T12:00",-1,"",null,"",""],[419,"CDISCPILOT01","FT","CDISC002",11,"AVL0211","AVL02-List A Word 11","AVLT-REY","FORM 1","NOT RECALLED","NOT RECALLED",null,"Y",1,2,"SCREENING 2","SCREENING","2012-11-14T12:00",-1,"",null,"",""],[420,"CDISCPILOT01","FT","CDISC002",12,"AVL0212","AVL02-List A Word 12","AVLT-REY","FORM 1","NOT RECALLED","NOT RECALLED",null,"Y",1,2,"SCREENING 2","SCREENING","2012-11-14T12:00",-1,"",null,"",""],[421,"CDISCPILOT01","FT","CDISC002",13,"AVL0213","AVL02-List A Word 13","AVLT-REY","FORM 1","NOT RECALLED","NOT RECALLED",null,"Y",1,2,"SCREENING 2","SCREENING","2012-11-14T12:00",-1,"",null,"",""],[422,"CDISCPILOT01","FT","CDISC002",14,"AVL0214","AVL02-List A Word 14","AVLT-REY","FORM 1","NOT RECALLED","NOT RECALLED",null,"Y",1,2,"SCREENING 2","SCREENING","2012-11-14T12:00",-1,"",null,"",""],[423,"CDISCPILOT01","FT","CDISC002",15,"AVL0215","AVL02-List A Word 15","AVLT-REY","FORM 1","NOT RECALLED","NOT RECALLED",null,"Y",1,2,"SCREENING 2","SCREENING","2012-11-14T12:00",-1,"",null,"",""],[424,"CDISCPILOT01","FT","CDISC002",16,"AVL0216","AVL02-List A Total","AVLT-REY","FORM 1","4","4",4,"Y",1,2,"SCREENING 2","SCREENING","2012-11-14T12:00",-1,"",null,"",""],[425,"CDISCPILOT01","FT","CDISC002",17,"AVL0217","AVL02-List A Intrusions","AVLT-REY","FORM 1","1","1",1,"Y",1,2,"SCREENING 2","SCREENING","2012-11-14T12:00",-1,"",null,"",""],[426,"CDISCPILOT01","FT","CDISC002",18,"AVL0201","AVL02-List A Word 1","AVLT-REY","FORM 1","RECALLED","RECALLED",null,"Y",2,2,"SCREENING 2","SCREENING","2012-11-14T12:05",-1,"",null,"",""],[427,"CDISCPILOT01","FT","CDISC002",19,"AVL0202","AVL02-List A Word 2","AVLT-REY","FORM 1","RECALLED","RECALLED",null,"Y",2,2,"SCREENING 2","SCREENING","2012-11-14T12:05",-1,"",null,"",""],[428,"CDISCPILOT01","FT","CDISC002",20,"AVL0203","AVL02-List A Word 3","AVLT-REY","FORM 1","RECALLED","RECALLED",null,"Y",2,2,"SCREENING 2","SCREENING","2012-11-14T12:05",-1,"",null,"",""],[429,"CDISCPILOT01","FT","CDISC002",21,"AVL0204","AVL02-List A Word 4","AVLT-REY","FORM 1","NOT RECALLED","NOT RECALLED",null,"Y",2,2,"SCREENING 2","SCREENING","2012-11-14T12:05",-1,"",null,"",""],[430,"CDISCPILOT01","FT","CDISC002",22,"AVL0205","AVL02-List A Word 5","AVLT-REY","FORM 1","NOT RECALLED","NOT RECALLED",null,"Y",2,2,"SCREENING 2","SCREENING","2012-11-14T12:05",-1,"",null,"",""],[431,"CDISCPILOT01","FT","CDISC002",23,"AVL0206","AVL02-List A Word 6","AVLT-REY","FORM 1","NOT RECALLED","NOT RECALLED",null,"Y",2,2,"SCREENING 2","SCREENING","2012-11-14T12:05",-1,"",null,"",""],[432,"CDISCPILOT01","FT","CDISC002",24,"AVL0207","AVL02-List A Word 7","AVLT-REY","FORM 1","RECALLED","RECALLED",null,"Y",2,2,"SCREENING 2","SCREENING","2012-11-14T12:05",-1,"",null,"",""],[433,"CDISCPILOT01","FT","CDISC002",25,"AVL0208","AVL02-List A Word 8","AVLT-REY","FORM 1","NOT RECALLED","NOT RECALLED",null,"Y",2,2,"SCREENING 2","SCREENING","2012-11-14T12:05",-1,"",null,"",""],[434,"CDISCPILOT01","FT","CDISC002",26,"AVL0209","AVL02-List A Word 9","AVLT-REY","FORM 1","NOT RECALLED","NOT RECALLED",null,"Y",2,2,"SCREENING 2","SCREENING","2012-11-14T12:05",-1,"",null,"",""],[435,"CDISCPILOT01","FT","CDISC002",27,"AVL0210","AVL02-List A Word 10","AVLT-REY","FORM 1","NOT RECALLED","NOT RECALLED",null,"Y",2,2,"SCREENING 2","SCREENING","2012-11-14T12:05",-1,"",null,"",""],[436,"CDISCPILOT01","FT","CDISC002",28,"AVL0211","AVL02-List A Word 11","AVLT-REY","FORM 1","NOT RECALLED","NOT RECALLED",null,"Y",2,2,"SCREENING 2","SCREENING","2012-11-14T12:05",-1,"",null,"",""],[437,"CDISCPILOT01","FT","CDISC002",29,"AVL0212","AVL02-List A Word 12","AVLT-REY","FORM 1","NOT RECALLED","NOT RECALLED",null,"Y",2,2,"SCREENING 2","SCREENING","2012-11-14T12:05",-1,"",null,"",""],[438,"CDISCPILOT01","FT","CDISC002",30,"AVL0213","AVL02-List A Word 13","AVLT-REY","FORM 1","NOT RECALLED","NOT RECALLED",null,"Y",2,2,"SCREENING 2","SCREENING","2012-11-14T12:05",-1,"",null,"",""],[439,"CDISCPILOT01","FT","CDISC002",31,"AVL0214","AVL02-List A Word 14","AVLT-REY","FORM 1","NOT RECALLED","NOT RECALLED",null,"Y",2,2,"SCREENING 2","SCREENING","2012-11-14T12:05",-1,"",null,"",""],[440,"CDISCPILOT01","FT","CDISC002",32,"AVL0215","AVL02-List A Word 15","AVLT-REY","FORM 1","NOT RECALLED","NOT RECALLED",null,"Y",2,2,"SCREENING 2","SCREENING","2012-11-14T12:05",-1,"",null,"",""],[441,"CDISCPILOT01","FT","CDISC002",33,"AVL0216","AVL02-List A Total","AVLT-REY","FORM 1","4","4",4,"Y",2,2,"SCREENING 2","SCREENING","2012-11-14T12:05",-1,"",null,"",""],[442,"CDISCPILOT01","FT","CDISC002",34,"AVL0217","AVL02-List A Intrusions","AVLT-REY","FORM 1","1","1",1,"Y",2,2,"SCREENING 2","SCREENING","2012-11-14T12:05",-1,"",null,"",""],[443,"CDISCPILOT01","FT","CDISC002",35,"AVL0201","AVL02-List A Word 1","AVLT-REY","FORM 1","RECALLED","RECALLED",null,"Y",3,2,"SCREENING 2","SCREENING","2012-11-14T12:10",-1,"",null,"",""],[444,"CDISCPILOT01","FT","CDISC002",36,"AVL0202","AVL02-List A Word 2","AVLT-REY","FORM 1","RECALLED","RECALLED",null,"Y",3,2,"SCREENING 2","SCREENING","2012-11-14T12:10",-1,"",null,"",""],[445,"CDISCPILOT01","FT","CDISC002",37,"AVL0203","AVL02-List A Word 3","AVLT-REY","FORM 1","RECALLED","RECALLED",null,"Y",3,2,"SCREENING 2","SCREENING","2012-11-14T12:10",-1,"",null,"",""],[446,"CDISCPILOT01","FT","CDISC002",38,"AVL0204","AVL02-List A Word 4","AVLT-REY","FORM 1","NOT RECALLED","NOT RECALLED",null,"Y",3,2,"SCREENING 2","SCREENING","2012-11-14T12:10",-1,"",null,"",""],[447,"CDISCPILOT01","FT","CDISC002",39,"AVL0205","AVL02-List A Word 5","AVLT-REY","FORM 1","RECALLED","RECALLED",null,"Y",3,2,"SCREENING 2","SCREENING","2012-11-14T12:10",-1,"",null,"",""],[448,"CDISCPILOT01","FT","CDISC002",40,"AVL0206","AVL02-List A Word 6","AVLT-REY","FORM 1","NOT RECALLED","NOT RECALLED",null,"Y",3,2,"SCREENING 2","SCREENING","2012-11-14T12:10",-1,"",null,"",""],[449,"CDISCPILOT01","FT","CDISC002",41,"AVL0207","AVL02-List A Word 7","AVLT-REY","FORM 1","RECALLED","RECALLED",null,"Y",3,2,"SCREENING 2","SCREENING","2012-11-14T12:10",-1,"",null,"",""],[450,"CDISCPILOT01","FT","CDISC002",42,"AVL0208","AVL02-List A Word 8","AVLT-REY","FORM 1","NOT RECALLED","NOT RECALLED",null,"Y",3,2,"SCREENING 2","SCREENING","2012-11-14T12:10",-1,"",null,"",""],[451,"CDISCPILOT01","FT","CDISC002",43,"AVL0209","AVL02-List A Word 9","AVLT-REY","FORM 1","NOT RECALLED","NOT RECALLED",null,"Y",3,2,"SCREENING 2","SCREENING","2012-11-14T12:10",-1,"",null,"",""],[452,"CDISCPILOT01","FT","CDISC002",44,"AVL0210","AVL02-List A Word 10","AVLT-REY","FORM 1","NOT RECALLED","NOT RECALLED",null,"Y",3,2,"SCREENING 2","SCREENING","2012-11-14T12:10",-1,"",null,"",""],[453,"CDISCPILOT01","FT","CDISC002",45,"AVL0211","AVL02-List A Word 11","AVLT-REY","FORM 1","NOT RECALLED","NOT RECALLED",null,"Y",3,2,"SCREENING 2","SCREENING","2012-11-14T12:10",-1,"",null,"",""],[454,"CDISCPILOT01","FT","CDISC002",46,"AVL0212","AVL02-List A Word 12","AVLT-REY","FORM 1","NOT RECALLED","NOT RECALLED",null,"Y",3,2,"SCREENING 2","SCREENING","2012-11-14T12:10",-1,"",null,"",""],[455,"CDISCPILOT01","FT","CDISC002",47,"AVL0213","AVL02-List A Word 13","AVLT-REY","FORM 1","NOT RECALLED","NOT RECALLED",null,"Y",3,2,"SCREENING 2","SCREENING","2012-11-14T12:10",-1,"",null,"",""],[456,"CDISCPILOT01","FT","CDISC002",48,"AVL0214","AVL02-List A Word 14","AVLT-REY","FORM 1","NOT RECALLED","NOT RECALLED",null,"Y",3,2,"SCREENING 2","SCREENING","2012-11-14T12:10",-1,"",null,"",""],[457,"CDISCPILOT01","FT","CDISC002",49,"AVL0215","AVL02-List A Word 15","AVLT-REY","FORM 1","NOT RECALLED","NOT RECALLED",null,"Y",3,2,"SCREENING 2","SCREENING","2012-11-14T12:10",-1,"",null,"",""],[458,"CDISCPILOT01","FT","CDISC002",50,"AVL0216","AVL02-List A Total","AVLT-REY","FORM 1","5","5",5,"Y",3,2,"SCREENING 2","SCREENING","2012-11-14T12:10",-1,"",null,"",""],[459,"CDISCPILOT01","FT","CDISC002",51,"AVL0217","AVL02-List A Intrusions","AVLT-REY","FORM 1","1","1",1,"Y",3,2,"SCREENING 2","SCREENING","2012-11-14T12:10",-1,"",null,"",""],[460,"CDISCPILOT01","FT","CDISC002",52,"AVL0201","AVL02-List A Word 1","AVLT-REY","FORM 1","RECALLED","RECALLED",null,"Y",4,2,"SCREENING 2","SCREENING","2012-11-14T12:15",-1,"",null,"",""],[461,"CDISCPILOT01","FT","CDISC002",53,"AVL0202","AVL02-List A Word 2","AVLT-REY","FORM 1","RECALLED","RECALLED",null,"Y",4,2,"SCREENING 2","SCREENING","2012-11-14T12:15",-1,"",null,"",""],[462,"CDISCPILOT01","FT","CDISC002",54,"AVL0203","AVL02-List A Word 3","AVLT-REY","FORM 1","RECALLED","RECALLED",null,"Y",4,2,"SCREENING 2","SCREENING","2012-11-14T12:15",-1,"",null,"",""],[463,"CDISCPILOT01","FT","CDISC002",55,"AVL0204","AVL02-List A Word 4","AVLT-REY","FORM 1","NOT RECALLED","NOT RECALLED",null,"Y",4,2,"SCREENING 2","SCREENING","2012-11-14T12:15",-1,"",null,"",""],[464,"CDISCPILOT01","FT","CDISC002",56,"AVL0205","AVL02-List A Word 5","AVLT-REY","FORM 1","RECALLED","RECALLED",null,"Y",4,2,"SCREENING 2","SCREENING","2012-11-14T12:15",-1,"",null,"",""],[465,"CDISCPILOT01","FT","CDISC002",57,"AVL0206","AVL02-List A Word 6","AVLT-REY","FORM 1","NOT RECALLED","NOT RECALLED",null,"Y",4,2,"SCREENING 2","SCREENING","2012-11-14T12:15",-1,"",null,"",""],[466,"CDISCPILOT01","FT","CDISC002",58,"AVL0207","AVL02-List A Word 7","AVLT-REY","FORM 1","NOT RECALLED","NOT RECALLED",null,"Y",4,2,"SCREENING 2","SCREENING","2012-11-14T12:15",-1,"",null,"",""],[467,"CDISCPILOT01","FT","CDISC002",59,"AVL0208","AVL02-List A Word 8","AVLT-REY","FORM 1","RECALLED","RECALLED",null,"Y",4,2,"SCREENING 2","SCREENING","2012-11-14T12:15",-1,"",null,"",""],[468,"CDISCPILOT01","FT","CDISC002",60,"AVL0209","AVL02-List A Word 9","AVLT-REY","FORM 1","NOT RECALLED","NOT RECALLED",null,"Y",4,2,"SCREENING 2","SCREENING","2012-11-14T12:15",-1,"",null,"",""],[469,"CDISCPILOT01","FT","CDISC002",61,"AVL0210","AVL02-List A Word 10","AVLT-REY","FORM 1","NOT RECALLED","NOT RECALLED",null,"Y",4,2,"SCREENING 2","SCREENING","2012-11-14T12:15",-1,"",null,"",""],[470,"CDISCPILOT01","FT","CDISC002",62,"AVL0211","AVL02-List A Word 11","AVLT-REY","FORM 1","NOT RECALLED","NOT RECALLED",null,"Y",4,2,"SCREENING 2","SCREENING","2012-11-14T12:15",-1,"",null,"",""],[471,"CDISCPILOT01","FT","CDISC002",63,"AVL0212","AVL02-List A Word 12","AVLT-REY","FORM 1","NOT RECALLED","NOT RECALLED",null,"Y",4,2,"SCREENING 2","SCREENING","2012-11-14T12:15",-1,"",null,"",""],[472,"CDISCPILOT01","FT","CDISC002",64,"AVL0213","AVL02-List A Word 13","AVLT-REY","FORM 1","NOT RECALLED","NOT RECALLED",null,"Y",4,2,"SCREENING 2","SCREENING","2012-11-14T12:15",-1,"",null,"",""],[473,"CDISCPILOT01","FT","CDISC002",65,"AVL0214","AVL02-List A Word 14","AVLT-REY","FORM 1","NOT RECALLED","NOT RECALLED",null,"Y",4,2,"SCREENING 2","SCREENING","2012-11-14T12:15",-1,"",null,"",""],[474,"CDISCPILOT01","FT","CDISC002",66,"AVL0215","AVL02-List A Word 15","AVLT-REY","FORM 1","NOT RECALLED","NOT RECALLED",null,"Y",4,2,"SCREENING 2","SCREENING","2012-11-14T12:15",-1,"",null,"",""],[475,"CDISCPILOT01","FT","CDISC002",67,"AVL0216","AVL02-List A Total","AVLT-REY","FORM 1","5","5",5,"Y",4,2,"SCREENING 2","SCREENING","2012-11-14T12:15",-1,"",null,"",""],[476,"CDISCPILOT01","FT","CDISC002",68,"AVL0217","AVL02-List A Intrusions","AVLT-REY","FORM 1","0","0",0,"Y",4,2,"SCREENING 2","SCREENING","2012-11-14T12:15",-1,"",null,"",""],[477,"CDISCPILOT01","FT","CDISC002",69,"AVL0201","AVL02-List A Word 1","AVLT-REY","FORM 1","RECALLED","RECALLED",null,"Y",5,2,"SCREENING 2","SCREENING","2012-11-14T12:20",-1,"",null,"",""],[478,"CDISCPILOT01","FT","CDISC002",70,"AVL0202","AVL02-List A Word 2","AVLT-REY","FORM 1","RECALLED","RECALLED",null,"Y",5,2,"SCREENING 2","SCREENING","2012-11-14T12:20",-1,"",null,"",""],[479,"CDISCPILOT01","FT","CDISC002",71,"AVL0203","AVL02-List A Word 3","AVLT-REY","FORM 1","RECALLED","RECALLED",null,"Y",5,2,"SCREENING 2","SCREENING","2012-11-14T12:20",-1,"",null,"",""],[480,"CDISCPILOT01","FT","CDISC002",72,"AVL0204","AVL02-List A Word 4","AVLT-REY","FORM 1","NOT RECALLED","NOT RECALLED",null,"Y",5,2,"SCREENING 2","SCREENING","2012-11-14T12:20",-1,"",null,"",""],[481,"CDISCPILOT01","FT","CDISC002",73,"AVL0205","AVL02-List A Word 5","AVLT-REY","FORM 1","RECALLED","RECALLED",null,"Y",5,2,"SCREENING 2","SCREENING","2012-11-14T12:20",-1,"",null,"",""],[482,"CDISCPILOT01","FT","CDISC002",74,"AVL0206","AVL02-List A Word 6","AVLT-REY","FORM 1","NOT RECALLED","NOT RECALLED",null,"Y",5,2,"SCREENING 2","SCREENING","2012-11-14T12:20",-1,"",null,"",""],[483,"CDISCPILOT01","FT","CDISC002",75,"AVL0207","AVL02-List A Word 7","AVLT-REY","FORM 1","NOT RECALLED","NOT RECALLED",null,"Y",5,2,"SCREENING 2","SCREENING","2012-11-14T12:20",-1,"",null,"",""],[484,"CDISCPILOT01","FT","CDISC002",76,"AVL0208","AVL02-List A Word 8","AVLT-REY","FORM 1","RECALLED","RECALLED",null,"Y",5,2,"SCREENING 2","SCREENING","2012-11-14T12:20",-1,"",null,"",""],[485,"CDISCPILOT01","FT","CDISC002",77,"AVL0209","AVL02-List A Word 9","AVLT-REY","FORM 1","NOT RECALLED","NOT RECALLED",null,"Y",5,2,"SCREENING 2","SCREENING","2012-11-14T12:20",-1,"",null,"",""],[486,"CDISCPILOT01","FT","CDISC002",78,"AVL0210","AVL02-List A Word 10","AVLT-REY","FORM 1","NOT RECALLED","NOT RECALLED",null,"Y",5,2,"SCREENING 2","SCREENING","2012-11-14T12:20",-1,"",null,"",""],[487,"CDISCPILOT01","FT","CDISC002",79,"AVL0211","AVL02-List A Word 11","AVLT-REY","FORM 1","NOT RECALLED","NOT RECALLED",null,"Y",5,2,"SCREENING 2","SCREENING","2012-11-14T12:20",-1,"",null,"",""],[488,"CDISCPILOT01","FT","CDISC002",80,"AVL0212","AVL02-List A Word 12","AVLT-REY","FORM 1","NOT RECALLED","NOT RECALLED",null,"Y",5,2,"SCREENING 2","SCREENING","2012-11-14T12:20",-1,"",null,"",""],[489,"CDISCPILOT01","FT","CDISC002",81,"AVL0213","AVL02-List A Word 13","AVLT-REY","FORM 1","NOT RECALLED","NOT RECALLED",null,"Y",5,2,"SCREENING 2","SCREENING","2012-11-14T12:20",-1,"",null,"",""],[490,"CDISCPILOT01","FT","CDISC002",82,"AVL0214","AVL02-List A Word 14","AVLT-REY","FORM 1","NOT RECALLED","NOT RECALLED",null,"Y",5,2,"SCREENING 2","SCREENING","2012-11-14T12:20",-1,"",null,"",""],[491,"CDISCPILOT01","FT","CDISC002",83,"AVL0215","AVL02-List A Word 15","AVLT-REY","FORM 1","NOT RECALLED","NOT RECALLED",null,"Y",5,2,"SCREENING 2","SCREENING","2012-11-14T12:20",-1,"",null,"",""],[492,"CDISCPILOT01","FT","CDISC002",84,"AVL0216","AVL02-List A Total","AVLT-REY","FORM 1","5","5",5,"Y",5,2,"SCREENING 2","SCREENING","2012-11-14T12:20",-1,"",null,"",""],[493,"CDISCPILOT01","FT","CDISC002",85,"AVL0217","AVL02-List A Intrusions","AVLT-REY","FORM 1","0","0",0,"Y",5,2,"SCREENING 2","SCREENING","2012-11-14T12:20",-1,"",null,"",""],[494,"CDISCPILOT01","FT","CDISC002",86,"AVL0218","AVL02-List B Word 1","AVLT-REY","FORM 1","RECALLED","RECALLED",null,"Y",null,2,"SCREENING 2","SCREENING","2012-11-14T12:25",-1,"",null,"",""],[495,"CDISCPILOT01","FT","CDISC002",87,"AVL0219","AVL02-List B Word 2","AVLT-REY","FORM 1","RECALLED","RECALLED",null,"Y",null,2,"SCREENING 2","SCREENING","2012-11-14T12:25",-1,"",null,"",""],[496,"CDISCPILOT01","FT","CDISC002",88,"AVL0220","AVL02-List B Word 3","AVLT-REY","FORM 1","RECALLED","RECALLED",null,"Y",null,2,"SCREENING 2","SCREENING","2012-11-14T12:25",-1,"",null,"",""],[497,"CDISCPILOT01","FT","CDISC002",89,"AVL0221","AVL02-List B Word 4","AVLT-REY","FORM 1","RECALLED","RECALLED",null,"Y",null,2,"SCREENING 2","SCREENING","2012-11-14T12:25",-1,"",null,"",""],[498,"CDISCPILOT01","FT","CDISC002",90,"AVL0222","AVL02-List B Word 5","AVLT-REY","FORM 1","NOT RECALLED","NOT RECALLED",null,"Y",null,2,"SCREENING 2","SCREENING","2012-11-14T12:25",-1,"",null,"",""],[499,"CDISCPILOT01","FT","CDISC002",91,"AVL0223","AVL02-List B Word 6","AVLT-REY","FORM 1","NOT RECALLED","NOT RECALLED",null,"Y",null,2,"SCREENING 2","SCREENING","2012-11-14T12:25",-1,"",null,"",""],[500,"CDISCPILOT01","FT","CDISC002",92,"AVL0224","AVL02-List B Word 7","AVLT-REY","FORM 1","NOT RECALLED","NOT RECALLED",null,"Y",null,2,"SCREENING 2","SCREENING","2012-11-14T12:25",-1,"",null,"",""],[501,"CDISCPILOT01","FT","CDISC002",93,"AVL0225","AVL02-List B Word 8","AVLT-REY","FORM 1","NOT RECALLED","NOT RECALLED",null,"Y",null,2,"SCREENING 2","SCREENING","2012-11-14T12:25",-1,"",null,"",""],[502,"CDISCPILOT01","FT","CDISC002",94,"AVL0226","AVL02-List B Word 9","AVLT-REY","FORM 1","NOT RECALLED","NOT RECALLED",null,"Y",null,2,"SCREENING 2","SCREENING","2012-11-14T12:25",-1,"",null,"",""],[503,"CDISCPILOT01","FT","CDISC002",95,"AVL0227","AVL02-List B Word 10","AVLT-REY","FORM 1","NOT RECALLED","NOT RECALLED",null,"Y",null,2,"SCREENING 2","SCREENING","2012-11-14T12:25",-1,"",null,"",""],[504,"CDISCPILOT01","FT","CDISC002",96,"AVL0228","AVL02-List B Word 11","AVLT-REY","FORM 1","NOT RECALLED","NOT RECALLED",null,"Y",null,2,"SCREENING 2","SCREENING","2012-11-14T12:25",-1,"",null,"",""],[505,"CDISCPILOT01","FT","CDISC002",97,"AVL0229","AVL02-List B Word 12","AVLT-REY","FORM 1","NOT RECALLED","NOT RECALLED",null,"Y",null,2,"SCREENING 2","SCREENING","2012-11-14T12:25",-1,"",null,"",""],[506,"CDISCPILOT01","FT","CDISC002",98,"AVL0230","AVL02-List B Word 13","AVLT-REY","FORM 1","NOT RECALLED","NOT RECALLED",null,"Y",null,2,"SCREENING 2","SCREENING","2012-11-14T12:25",-1,"",null,"",""],[507,"CDISCPILOT01","FT","CDISC002",99,"AVL0231","AVL02-List B Word 14","AVLT-REY","FORM 1","NOT RECALLED","NOT RECALLED",null,"Y",null,2,"SCREENING 2","SCREENING","2012-11-14T12:25",-1,"",null,"",""],[508,"CDISCPILOT01","FT","CDISC002",100,"AVL0232","AVL02-List B Word 15","AVLT-REY","FORM 1","NOT RECALLED","NOT RECALLED",null,"Y",null,2,"SCREENING 2","SCREENING","2012-11-14T12:25",-1,"",null,"",""],[509,"CDISCPILOT01","FT","CDISC002",101,"AVL0233","AVL02- List B Total","AVLT-REY","FORM 1","4","4",4,"Y",null,2,"SCREENING 2","SCREENING","2012-11-14T12:25",-1,"",null,"",""],[510,"CDISCPILOT01","FT","CDISC002",102,"AVL0234","AVL02-List B Intrusions","AVLT-REY","FORM 1","0","0",0,"Y",null,2,"SCREENING 2","SCREENING","2012-11-14T12:25",-1,"",null,"",""],[511,"CDISCPILOT01","FT","CDISC002",103,"AVL0201","AVL02-List A Word 1","AVLT-REY","FORM 1","RECALLED","RECALLED",null,"Y",6,2,"SCREENING 2","SCREENING","2012-11-14T12:30",-1,"",null,"",""],[512,"CDISCPILOT01","FT","CDISC002",104,"AVL0202","AVL02-List A Word 2","AVLT-REY","FORM 1","RECALLED","RECALLED",null,"Y",6,2,"SCREENING 2","SCREENING","2012-11-14T12:30",-1,"",null,"",""],[513,"CDISCPILOT01","FT","CDISC002",105,"AVL0203","AVL02-List A Word 3","AVLT-REY","FORM 1","RECALLED","RECALLED",null,"Y",6,2,"SCREENING 2","SCREENING","2012-11-14T12:30",-1,"",null,"",""],[514,"CDISCPILOT01","FT","CDISC002",106,"AVL0204","AVL02-List A Word 4","AVLT-REY","FORM 1","NOT RECALLED","NOT RECALLED",null,"Y",6,2,"SCREENING 2","SCREENING","2012-11-14T12:30",-1,"",null,"",""],[515,"CDISCPILOT01","FT","CDISC002",107,"AVL0205","AVL02-List A Word 5","AVLT-REY","FORM 1","RECALLED","RECALLED",null,"Y",6,2,"SCREENING 2","SCREENING","2012-11-14T12:30",-1,"",null,"",""],[516,"CDISCPILOT01","FT","CDISC002",108,"AVL0206","AVL02-List A Word 6","AVLT-REY","FORM 1","NOT RECALLED","NOT RECALLED",null,"Y",6,2,"SCREENING 2","SCREENING","2012-11-14T12:30",-1,"",null,"",""],[517,"CDISCPILOT01","FT","CDISC002",109,"AVL0207","AVL02-List A Word 7","AVLT-REY","FORM 1","NOT RECALLED","NOT RECALLED",null,"Y",6,2,"SCREENING 2","SCREENING","2012-11-14T12:30",-1,"",null,"",""],[518,"CDISCPILOT01","FT","CDISC002",110,"AVL0208","AVL02-List A Word 8","AVLT-REY","FORM 1","RECALLED","RECALLED",null,"Y",6,2,"SCREENING 2","SCREENING","2012-11-14T12:30",-1,"",null,"",""],[519,"CDISCPILOT01","FT","CDISC002",111,"AVL0209","AVL02-List A Word 9","AVLT-REY","FORM 1","NOT RECALLED","NOT RECALLED",null,"Y",6,2,"SCREENING 2","SCREENING","2012-11-14T12:30",-1,"",null,"",""],[520,"CDISCPILOT01","FT","CDISC002",112,"AVL0210","AVL02-List A Word 10","AVLT-REY","FORM 1","NOT RECALLED","NOT RECALLED",null,"Y",6,2,"SCREENING 2","SCREENING","2012-11-14T12:30",-1,"",null,"",""],[521,"CDISCPILOT01","FT","CDISC002",113,"AVL0211","AVL02-List A Word 11","AVLT-REY","FORM 1","NOT RECALLED","NOT RECALLED",null,"Y",6,2,"SCREENING 2","SCREENING","2012-11-14T12:30",-1,"",null,"",""],[522,"CDISCPILOT01","FT","CDISC002",114,"AVL0212","AVL02-List A Word 12","AVLT-REY","FORM 1","NOT RECALLED","NOT RECALLED",null,"Y",6,2,"SCREENING 2","SCREENING","2012-11-14T12:30",-1,"",null,"",""],[523,"CDISCPILOT01","FT","CDISC002",115,"AVL0213","AVL02-List A Word 13","AVLT-REY","FORM 1","NOT RECALLED","NOT RECALLED",null,"Y",6,2,"SCREENING 2","SCREENING","2012-11-14T12:30",-1,"",null,"",""],[524,"CDISCPILOT01","FT","CDISC002",116,"AVL0214","AVL02-List A Word 14","AVLT-REY","FORM 1","NOT RECALLED","NOT RECALLED",null,"Y",6,2,"SCREENING 2","SCREENING","2012-11-14T12:30",-1,"",null,"",""],[525,"CDISCPILOT01","FT","CDISC002",117,"AVL0215","AVL02-List A Word 15","AVLT-REY","FORM 1","NOT RECALLED","NOT RECALLED",null,"Y",6,2,"SCREENING 2","SCREENING","2012-11-14T12:30",-1,"",null,"",""],[526,"CDISCPILOT01","FT","CDISC002",118,"AVL0216","AVL02-List A Total","AVLT-REY","FORM 1","5","5",5,"Y",6,2,"SCREENING 2","SCREENING","2012-11-14T12:30",-1,"",null,"",""],[527,"CDISCPILOT01","FT","CDISC002",119,"AVL0217","AVL02-List A Intrusions","AVLT-REY","FORM 1","0","0",0,"Y",6,2,"SCREENING 2","SCREENING","2012-11-14T12:30",-1,"",null,"",""],[528,"CDISCPILOT01","FT","CDISC002",120,"AVL0201","AVL02-List A Word 1","AVLT-REY","FORM 1","RECALLED","RECALLED",null,"Y",7,2,"SCREENING 2","SCREENING","2012-11-14T13:00",-1,"30 MIN POST",1,"PT30M","LIST A RECALL 6"],[529,"CDISCPILOT01","FT","CDISC002",121,"AVL0202","AVL02-List A Word 2","AVLT-REY","FORM 1","NOT RECALLED","NOT RECALLED",null,"Y",7,2,"SCREENING 2","SCREENING","2012-11-14T13:00",-1,"30 MIN POST",1,"PT30M","LIST A RECALL 6"],[530,"CDISCPILOT01","FT","CDISC002",122,"AVL0203","AVL02-List A Word 3","AVLT-REY","FORM 1","NOT RECALLED","NOT RECALLED",null,"Y",7,2,"SCREENING 2","SCREENING","2012-11-14T13:00",-1,"30 MIN POST",1,"PT30M","LIST A RECALL 6"],[531,"CDISCPILOT01","FT","CDISC002",123,"AVL0204","AVL02-List A Word 4","AVLT-REY","FORM 1","NOT RECALLED","NOT RECALLED",null,"Y",7,2,"SCREENING 2","SCREENING","2012-11-14T13:00",-1,"30 MIN POST",1,"PT30M","LIST A RECALL 6"],[532,"CDISCPILOT01","FT","CDISC002",124,"AVL0205","AVL02-List A Word 5","AVLT-REY","FORM 1","RECALLED","RECALLED",null,"Y",7,2,"SCREENING 2","SCREENING","2012-11-14T13:00",-1,"30 MIN POST",1,"PT30M","LIST A RECALL 6"],[533,"CDISCPILOT01","FT","CDISC002",125,"AVL0206","AVL02-List A Word 6","AVLT-REY","FORM 1","NOT RECALLED","NOT RECALLED",null,"Y",7,2,"SCREENING 2","SCREENING","2012-11-14T13:00",-1,"30 MIN POST",1,"PT30M","LIST A RECALL 6"],[534,"CDISCPILOT01","FT","CDISC002",126,"AVL0207","AVL02-List A Word 7","AVLT-REY","FORM 1","NOT RECALLED","NOT RECALLED",null,"Y",7,2,"SCREENING 2","SCREENING","2012-11-14T13:00",-1,"30 MIN POST",1,"PT30M","LIST A RECALL 6"],[535,"CDISCPILOT01","FT","CDISC002",127,"AVL0208","AVL02-List A Word 8","AVLT-REY","FORM 1","RECALLED","RECALLED",null,"Y",7,2,"SCREENING 2","SCREENING","2012-11-14T13:00",-1,"30 MIN POST",1,"PT30M","LIST A RECALL 6"],[536,"CDISCPILOT01","FT","CDISC002",128,"AVL0209","AVL02-List A Word 9","AVLT-REY","FORM 1","NOT RECALLED","NOT RECALLED",null,"Y",7,2,"SCREENING 2","SCREENING","2012-11-14T13:00",-1,"30 MIN POST",1,"PT30M","LIST A RECALL 6"],[537,"CDISCPILOT01","FT","CDISC002",129,"AVL0210","AVL02-List A Word 10","AVLT-REY","FORM 1","NOT RECALLED","NOT RECALLED",null,"Y",7,2,"SCREENING 2","SCREENING","2012-11-14T13:00",-1,"30 MIN POST",1,"PT30M","LIST A RECALL 6"],[538,"CDISCPILOT01","FT","CDISC002",130,"AVL0211","AVL02-List A Word 11","AVLT-REY","FORM 1","NOT RECALLED","NOT RECALLED",null,"Y",7,2,"SCREENING 2","SCREENING","2012-11-14T13:00",-1,"30 MIN POST",1,"PT30M","LIST A RECALL 6"],[539,"CDISCPILOT01","FT","CDISC002",131,"AVL0212","AVL02-List A Word 12","AVLT-REY","FORM 1","NOT RECALLED","NOT RECALLED",null,"Y",7,2,"SCREENING 2","SCREENING","2012-11-14T13:00",-1,"30 MIN POST",1,"PT30M","LIST A RECALL 6"],[540,"CDISCPILOT01","FT","CDISC002",132,"AVL0213","AVL02-List A Word 13","AVLT-REY","FORM 1","NOT RECALLED","NOT RECALLED",null,"Y",7,2,"SCREENING 2","SCREENING","2012-11-14T13:00",-1,"30 MIN POST",1,"PT30M","LIST A RECALL 6"],[541,"CDISCPILOT01","FT","CDISC002",133,"AVL0214","AVL02-List A Word 14","AVLT-REY","FORM 1","NOT RECALLED","NOT RECALLED",null,"Y",7,2,"SCREENING 2","SCREENING","2012-11-14T13:00",-1,"30 MIN POST",1,"PT30M","LIST A RECALL 6"],[542,"CDISCPILOT01","FT","CDISC002",134,"AVL0215","AVL02-List A Word 15","AVLT-REY","FORM 1","NOT RECALLED","NOT RECALLED",null,"Y",7,2,"SCREENING 2","SCREENING","2012-11-14T13:00",-1,"30 MIN POST",1,"PT30M","LIST A RECALL 6"],[543,"CDISCPILOT01","FT","CDISC002",135,"AVL0216","AVL02-List A Total","AVLT-REY","FORM 1","3","3",3,"Y",7,2,"SCREENING 2","SCREENING","2012-11-14T13:00",-1,"30 MIN POST",1,"PT30M","LIST A RECALL 6"],[544,"CDISCPILOT01","FT","CDISC002",136,"AVL0217","AVL02-List A Intrusions","AVLT-REY","FORM 1","0","0",0,"Y",7,2,"SCREENING 2","SCREENING","2012-11-14T13:00",-1,"30 MIN POST",1,"PT30M","LIST A RECALL 6"],[545,"CDISCPILOT01","FT","CDISC002",137,"AVL0201","AVL02-List A Word 1","AVLT-REY","FORM 1","RECALLED","RECALLED",null,"",1,8,"WEEK 8","TREATMENT","2013-01-08T12:00",55,"",null,"",""],[546,"CDISCPILOT01","FT","CDISC002",138,"AVL0202","AVL02-List A Word 2","AVLT-REY","FORM 1","RECALLED","RECALLED",null,"",1,8,"WEEK 8","TREATMENT","2013-01-08T12:00",55,"",null,"",""],[547,"CDISCPILOT01","FT","CDISC002",139,"AVL0203","AVL02-List A Word 3","AVLT-REY","FORM 1","RECALLED","RECALLED",null,"",1,8,"WEEK 8","TREATMENT","2013-01-08T12:00",55,"",null,"",""],[548,"CDISCPILOT01","FT","CDISC002",140,"AVL0204","AVL02-List A Word 4","AVLT-REY","FORM 1","NOT RECALLED","NOT RECALLED",null,"",1,8,"WEEK 8","TREATMENT","2013-01-08T12:00",55,"",null,"",""],[549,"CDISCPILOT01","FT","CDISC002",141,"AVL0205","AVL02-List A Word 5","AVLT-REY","FORM 1","NOT RECALLED","NOT RECALLED",null,"",1,8,"WEEK 8","TREATMENT","2013-01-08T12:00",55,"",null,"",""],[550,"CDISCPILOT01","FT","CDISC002",142,"AVL0206","AVL02-List A Word 6","AVLT-REY","FORM 1","NOT RECALLED","NOT RECALLED",null,"",1,8,"WEEK 8","TREATMENT","2013-01-08T12:00",55,"",null,"",""],[551,"CDISCPILOT01","FT","CDISC002",143,"AVL0207","AVL02-List A Word 7","AVLT-REY","FORM 1","RECALLED","RECALLED",null,"",1,8,"WEEK 8","TREATMENT","2013-01-08T12:00",55,"",null,"",""],[552,"CDISCPILOT01","FT","CDISC002",144,"AVL0208","AVL02-List A Word 8","AVLT-REY","FORM 1","NOT RECALLED","NOT RECALLED",null,"",1,8,"WEEK 8","TREATMENT","2013-01-08T12:00",55,"",null,"",""],[553,"CDISCPILOT01","FT","CDISC002",145,"AVL0209","AVL02-List A Word 9","AVLT-REY","FORM 1","NOT RECALLED","NOT RECALLED",null,"",1,8,"WEEK 8","TREATMENT","2013-01-08T12:00",55,"",null,"",""],[554,"CDISCPILOT01","FT","CDISC002",146,"AVL0210","AVL02-List A Word 10","AVLT-REY","FORM 1","NOT RECALLED","NOT RECALLED",null,"",1,8,"WEEK 8","TREATMENT","2013-01-08T12:00",55,"",null,"",""],[555,"CDISCPILOT01","FT","CDISC002",147,"AVL0211","AVL02-List A Word 11","AVLT-REY","FORM 1","NOT RECALLED","NOT RECALLED",null,"",1,8,"WEEK 8","TREATMENT","2013-01-08T12:00",55,"",null,"",""],[556,"CDISCPILOT01","FT","CDISC002",148,"AVL0212","AVL02-List A Word 12","AVLT-REY","FORM 1","NOT RECALLED","NOT RECALLED",null,"",1,8,"WEEK 8","TREATMENT","2013-01-08T12:00",55,"",null,"",""],[557,"CDISCPILOT01","FT","CDISC002",149,"AVL0213","AVL02-List A Word 13","AVLT-REY","FORM 1","NOT RECALLED","NOT RECALLED",null,"",1,8,"WEEK 8","TREATMENT","2013-01-08T12:00",55,"",null,"",""],[558,"CDISCPILOT01","FT","CDISC002",150,"AVL0214","AVL02-List A Word 14","AVLT-REY","FORM 1","NOT RECALLED","NOT RECALLED",null,"",1,8,"WEEK 8","TREATMENT","2013-01-08T12:00",55,"",null,"",""],[559,"CDISCPILOT01","FT","CDISC002",151,"AVL0215","AVL02-List A Word 15","AVLT-REY","FORM 1","NOT RECALLED","NOT RECALLED",null,"",1,8,"WEEK 8","TREATMENT","2013-01-08T12:00",55,"",null,"",""],[560,"CDISCPILOT01","FT","CDISC002",152,"AVL0216","AVL02-List A Total","AVLT-REY","FORM 1","4","4",4,"",1,8,"WEEK 8","TREATMENT","2013-01-08T12:00",55,"",null,"",""],[561,"CDISCPILOT01","FT","CDISC002",153,"AVL0217","AVL02-List A Intrusions","AVLT-REY","FORM 1","0","0",0,"",1,8,"WEEK 8","TREATMENT","2013-01-08T12:00",55,"",null,"",""],[562,"CDISCPILOT01","FT","CDISC002",154,"AVL0201","AVL02-List A Word 1","AVLT-REY","FORM 1","RECALLED","RECALLED",null,"",2,8,"WEEK 8","TREATMENT","2013-01-08T12:05",55,"",null,"",""],[563,"CDISCPILOT01","FT","CDISC002",155,"AVL0202","AVL02-List A Word 2","AVLT-REY","FORM 1","RECALLED","RECALLED",null,"",2,8,"WEEK 8","TREATMENT","2013-01-08T12:05",55,"",null,"",""],[564,"CDISCPILOT01","FT","CDISC002",156,"AVL0203","AVL02-List A Word 3","AVLT-REY","FORM 1","RECALLED","RECALLED",null,"",2,8,"WEEK 8","TREATMENT","2013-01-08T12:05",55,"",null,"",""],[565,"CDISCPILOT01","FT","CDISC002",157,"AVL0204","AVL02-List A Word 4","AVLT-REY","FORM 1","NOT RECALLED","NOT RECALLED",null,"",2,8,"WEEK 8","TREATMENT","2013-01-08T12:05",55,"",null,"",""],[566,"CDISCPILOT01","FT","CDISC002",158,"AVL0205","AVL02-List A Word 5","AVLT-REY","FORM 1","NOT RECALLED","NOT RECALLED",null,"",2,8,"WEEK 8","TREATMENT","2013-01-08T12:05",55,"",null,"",""],[567,"CDISCPILOT01","FT","CDISC002",159,"AVL0206","AVL02-List A Word 6","AVLT-REY","FORM 1","NOT RECALLED","NOT RECALLED",null,"",2,8,"WEEK 8","TREATMENT","2013-01-08T12:05",55,"",null,"",""],[568,"CDISCPILOT01","FT","CDISC002",160,"AVL0207","AVL02-List A Word 7","AVLT-REY","FORM 1","RECALLED","RECALLED",null,"",2,8,"WEEK 8","TREATMENT","2013-01-08T12:05",55,"",null,"",""],[569,"CDISCPILOT01","FT","CDISC002",161,"AVL0208","AVL02-List A Word 8","AVLT-REY","FORM 1","RECALLED","RECALLED",null,"",2,8,"WEEK 8","TREATMENT","2013-01-08T12:05",55,"",null,"",""],[570,"CDISCPILOT01","FT","CDISC002",162,"AVL0209","AVL02-List A Word 9","AVLT-REY","FORM 1","RECALLED","RECALLED",null,"",2,8,"WEEK 8","TREATMENT","2013-01-08T12:05",55,"",null,"",""],[571,"CDISCPILOT01","FT","CDISC002",163,"AVL0210","AVL02-List A Word 10","AVLT-REY","FORM 1","NOT RECALLED","NOT RECALLED",null,"",2,8,"WEEK 8","TREATMENT","2013-01-08T12:05",55,"",null,"",""],[572,"CDISCPILOT01","FT","CDISC002",164,"AVL0211","AVL02-List A Word 11","AVLT-REY","FORM 1","NOT RECALLED","NOT RECALLED",null,"",2,8,"WEEK 8","TREATMENT","2013-01-08T12:05",55,"",null,"",""],[573,"CDISCPILOT01","FT","CDISC002",165,"AVL0212","AVL02-List A Word 12","AVLT-REY","FORM 1","NOT RECALLED","NOT RECALLED",null,"",2,8,"WEEK 8","TREATMENT","2013-01-08T12:05",55,"",null,"",""],[574,"CDISCPILOT01","FT","CDISC002",166,"AVL0213","AVL02-List A Word 13","AVLT-REY","FORM 1","NOT RECALLED","NOT RECALLED",null,"",2,8,"WEEK 8","TREATMENT","2013-01-08T12:05",55,"",null,"",""],[575,"CDISCPILOT01","FT","CDISC002",167,"AVL0214","AVL02-List A Word 14","AVLT-REY","FORM 1","NOT RECALLED","NOT RECALLED",null,"",2,8,"WEEK 8","TREATMENT","2013-01-08T12:05",55,"",null,"",""],[576,"CDISCPILOT01","FT","CDISC002",168,"AVL0215","AVL02-List A Word 15","AVLT-REY","FORM 1","NOT RECALLED","NOT RECALLED",null,"",2,8,"WEEK 8","TREATMENT","2013-01-08T12:05",55,"",null,"",""],[577,"CDISCPILOT01","FT","CDISC002",169,"AVL0216","AVL02-List A Total","AVLT-REY","FORM 1","6","6",6,"",2,8,"WEEK 8","TREATMENT","2013-01-08T12:05",55,"",null,"",""],[578,"CDISCPILOT01","FT","CDISC002",170,"AVL0217","AVL02-List A Intrusions","AVLT-REY","FORM 1","0","0",0,"",2,8,"WEEK 8","TREATMENT","2013-01-08T12:05",55,"",null,"",""],[579,"CDISCPILOT01","FT","CDISC002",171,"AVL0201","AVL02-List A Word 1","AVLT-REY","FORM 1","RECALLED","RECALLED",null,"",3,8,"WEEK 8","TREATMENT","2013-01-08T12:10",55,"",null,"",""],[580,"CDISCPILOT01","FT","CDISC002",172,"AVL0202","AVL02-List A Word 2","AVLT-REY","FORM 1","RECALLED","RECALLED",null,"",3,8,"WEEK 8","TREATMENT","2013-01-08T12:10",55,"",null,"",""],[581,"CDISCPILOT01","FT","CDISC002",173,"AVL0203","AVL02-List A Word 3","AVLT-REY","FORM 1","RECALLED","RECALLED",null,"",3,8,"WEEK 8","TREATMENT","2013-01-08T12:10",55,"",null,"",""],[582,"CDISCPILOT01","FT","CDISC002",174,"AVL0204","AVL02-List A Word 4","AVLT-REY","FORM 1","NOT RECALLED","NOT RECALLED",null,"",3,8,"WEEK 8","TREATMENT","2013-01-08T12:10",55,"",null,"",""],[583,"CDISCPILOT01","FT","CDISC002",175,"AVL0205","AVL02-List A Word 5","AVLT-REY","FORM 1","NOT RECALLED","NOT RECALLED",null,"",3,8,"WEEK 8","TREATMENT","2013-01-08T12:10",55,"",null,"",""],[584,"CDISCPILOT01","FT","CDISC002",176,"AVL0206","AVL02-List A Word 6","AVLT-REY","FORM 1","NOT RECALLED","NOT RECALLED",null,"",3,8,"WEEK 8","TREATMENT","2013-01-08T12:10",55,"",null,"",""],[585,"CDISCPILOT01","FT","CDISC002",177,"AVL0207","AVL02-List A Word 7","AVLT-REY","FORM 1","RECALLED","RECALLED",null,"",3,8,"WEEK 8","TREATMENT","2013-01-08T12:10",55,"",null,"",""],[586,"CDISCPILOT01","FT","CDISC002",178,"AVL0208","AVL02-List A Word 8","AVLT-REY","FORM 1","RECALLED","RECALLED",null,"",3,8,"WEEK 8","TREATMENT","2013-01-08T12:10",55,"",null,"",""],[587,"CDISCPILOT01","FT","CDISC002",179,"AVL0209","AVL02-List A Word 9","AVLT-REY","FORM 1","RECALLED","RECALLED",null,"",3,8,"WEEK 8","TREATMENT","2013-01-08T12:10",55,"",null,"",""],[588,"CDISCPILOT01","FT","CDISC002",180,"AVL0210","AVL02-List A Word 10","AVLT-REY","FORM 1","NOT RECALLED","NOT RECALLED",null,"",3,8,"WEEK 8","TREATMENT","2013-01-08T12:10",55,"",null,"",""],[589,"CDISCPILOT01","FT","CDISC002",181,"AVL0211","AVL02-List A Word 11","AVLT-REY","FORM 1","NOT RECALLED","NOT RECALLED",null,"",3,8,"WEEK 8","TREATMENT","2013-01-08T12:10",55,"",null,"",""],[590,"CDISCPILOT01","FT","CDISC002",182,"AVL0212","AVL02-List A Word 12","AVLT-REY","FORM 1","NOT RECALLED","NOT RECALLED",null,"",3,8,"WEEK 8","TREATMENT","2013-01-08T12:10",55,"",null,"",""],[591,"CDISCPILOT01","FT","CDISC002",183,"AVL0213","AVL02-List A Word 13","AVLT-REY","FORM 1","NOT RECALLED","NOT RECALLED",null,"",3,8,"WEEK 8","TREATMENT","2013-01-08T12:10",55,"",null,"",""],[592,"CDISCPILOT01","FT","CDISC002",184,"AVL0214","AVL02-List A Word 14","AVLT-REY","FORM 1","NOT RECALLED","NOT RECALLED",null,"",3,8,"WEEK 8","TREATMENT","2013-01-08T12:10",55,"",null,"",""],[593,"CDISCPILOT01","FT","CDISC002",185,"AVL0215","AVL02-List A Word 15","AVLT-REY","FORM 1","NOT RECALLED","NOT RECALLED",null,"",3,8,"WEEK 8","TREATMENT","2013-01-08T12:10",55,"",null,"",""],[594,"CDISCPILOT01","FT","CDISC002",186,"AVL0216","AVL02-List A Total","AVLT-REY","FORM 1","6","6",6,"",3,8,"WEEK 8","TREATMENT","2013-01-08T12:10",55,"",null,"",""],[595,"CDISCPILOT01","FT","CDISC002",187,"AVL0217","AVL02-List A Intrusions","AVLT-REY","FORM 1","0","0",0,"",3,8,"WEEK 8","TREATMENT","2013-01-08T12:10",55,"",null,"",""],[596,"CDISCPILOT01","FT","CDISC002",188,"AVL0201","AVL02-List A Word 1","AVLT-REY","FORM 1","RECALLED","RECALLED",null,"",4,8,"WEEK 8","TREATMENT","2013-01-08T12:15",55,"",null,"",""],[597,"CDISCPILOT01","FT","CDISC002",189,"AVL0202","AVL02-List A Word 2","AVLT-REY","FORM 1","RECALLED","RECALLED",null,"",4,8,"WEEK 8","TREATMENT","2013-01-08T12:15",55,"",null,"",""],[598,"CDISCPILOT01","FT","CDISC002",190,"AVL0203","AVL02-List A Word 3","AVLT-REY","FORM 1","RECALLED","RECALLED",null,"",4,8,"WEEK 8","TREATMENT","2013-01-08T12:15",55,"",null,"",""],[599,"CDISCPILOT01","FT","CDISC002",191,"AVL0204","AVL02-List A Word 4","AVLT-REY","FORM 1","NOT RECALLED","NOT RECALLED",null,"",4,8,"WEEK 8","TREATMENT","2013-01-08T12:15",55,"",null,"",""],[600,"CDISCPILOT01","FT","CDISC002",192,"AVL0205","AVL02-List A Word 5","AVLT-REY","FORM 1","NOT RECALLED","NOT RECALLED",null,"",4,8,"WEEK 8","TREATMENT","2013-01-08T12:15",55,"",null,"",""],[601,"CDISCPILOT01","FT","CDISC002",193,"AVL0206","AVL02-List A Word 6","AVLT-REY","FORM 1","NOT RECALLED","NOT RECALLED",null,"",4,8,"WEEK 8","TREATMENT","2013-01-08T12:15",55,"",null,"",""],[602,"CDISCPILOT01","FT","CDISC002",194,"AVL0207","AVL02-List A Word 7","AVLT-REY","FORM 1","RECALLED","RECALLED",null,"",4,8,"WEEK 8","TREATMENT","2013-01-08T12:15",55,"",null,"",""],[603,"CDISCPILOT01","FT","CDISC002",195,"AVL0208","AVL02-List A Word 8","AVLT-REY","FORM 1","RECALLED","RECALLED",null,"",4,8,"WEEK 8","TREATMENT","2013-01-08T12:15",55,"",null,"",""],[604,"CDISCPILOT01","FT","CDISC002",196,"AVL0209","AVL02-List A Word 9","AVLT-REY","FORM 1","RECALLED","RECALLED",null,"",4,8,"WEEK 8","TREATMENT","2013-01-08T12:15",55,"",null,"",""],[605,"CDISCPILOT01","FT","CDISC002",197,"AVL0210","AVL02-List A Word 10","AVLT-REY","FORM 1","RECALLED","RECALLED",null,"",4,8,"WEEK 8","TREATMENT","2013-01-08T12:15",55,"",null,"",""],[606,"CDISCPILOT01","FT","CDISC002",198,"AVL0211","AVL02-List A Word 11","AVLT-REY","FORM 1","NOT RECALLED","NOT RECALLED",null,"",4,8,"WEEK 8","TREATMENT","2013-01-08T12:15",55,"",null,"",""],[607,"CDISCPILOT01","FT","CDISC002",199,"AVL0212","AVL02-List A Word 12","AVLT-REY","FORM 1","NOT RECALLED","NOT RECALLED",null,"",4,8,"WEEK 8","TREATMENT","2013-01-08T12:15",55,"",null,"",""],[608,"CDISCPILOT01","FT","CDISC002",200,"AVL0213","AVL02-List A Word 13","AVLT-REY","FORM 1","NOT RECALLED","NOT RECALLED",null,"",4,8,"WEEK 8","TREATMENT","2013-01-08T12:15",55,"",null,"",""],[609,"CDISCPILOT01","FT","CDISC002",201,"AVL0214","AVL02-List A Word 14","AVLT-REY","FORM 1","NOT RECALLED","NOT RECALLED",null,"",4,8,"WEEK 8","TREATMENT","2013-01-08T12:15",55,"",null,"",""],[610,"CDISCPILOT01","FT","CDISC002",202,"AVL0215","AVL02-List A Word 15","AVLT-REY","FORM 1","NOT RECALLED","NOT RECALLED",null,"",4,8,"WEEK 8","TREATMENT","2013-01-08T12:15",55,"",null,"",""],[611,"CDISCPILOT01","FT","CDISC002",203,"AVL0216","AVL02-List A Total","AVLT-REY","FORM 1","7","7",7,"",4,8,"WEEK 8","TREATMENT","2013-01-08T12:15",55,"",null,"",""],[612,"CDISCPILOT01","FT","CDISC002",204,"AVL0217","AVL02-List A Intrusions","AVLT-REY","FORM 1","0","0",0,"",4,8,"WEEK 8","TREATMENT","2013-01-08T12:15",55,"",null,"",""],[613,"CDISCPILOT01","FT","CDISC002",205,"AVL0201","AVL02-List A Word 1","AVLT-REY","FORM 1","RECALLED","RECALLED",null,"",5,8,"WEEK 8","TREATMENT","2013-01-08T12:20",55,"",null,"",""],[614,"CDISCPILOT01","FT","CDISC002",206,"AVL0202","AVL02-List A Word 2","AVLT-REY","FORM 1","RECALLED","RECALLED",null,"",5,8,"WEEK 8","TREATMENT","2013-01-08T12:20",55,"",null,"",""],[615,"CDISCPILOT01","FT","CDISC002",207,"AVL0203","AVL02-List A Word 3","AVLT-REY","FORM 1","RECALLED","RECALLED",null,"",5,8,"WEEK 8","TREATMENT","2013-01-08T12:20",55,"",null,"",""],[616,"CDISCPILOT01","FT","CDISC002",208,"AVL0204","AVL02-List A Word 4","AVLT-REY","FORM 1","NOT RECALLED","NOT RECALLED",null,"",5,8,"WEEK 8","TREATMENT","2013-01-08T12:20",55,"",null,"",""],[617,"CDISCPILOT01","FT","CDISC002",209,"AVL0205","AVL02-List A Word 5","AVLT-REY","FORM 1","NOT RECALLED","NOT RECALLED",null,"",5,8,"WEEK 8","TREATMENT","2013-01-08T12:20",55,"",null,"",""],[618,"CDISCPILOT01","FT","CDISC002",210,"AVL0206","AVL02-List A Word 6","AVLT-REY","FORM 1","NOT RECALLED","NOT RECALLED",null,"",5,8,"WEEK 8","TREATMENT","2013-01-08T12:20",55,"",null,"",""],[619,"CDISCPILOT01","FT","CDISC002",211,"AVL0207","AVL02-List A Word 7","AVLT-REY","FORM 1","RECALLED","RECALLED",null,"",5,8,"WEEK 8","TREATMENT","2013-01-08T12:20",55,"",null,"",""],[620,"CDISCPILOT01","FT","CDISC002",212,"AVL0208","AVL02-List A Word 8","AVLT-REY","FORM 1","RECALLED","RECALLED",null,"",5,8,"WEEK 8","TREATMENT","2013-01-08T12:20",55,"",null,"",""],[621,"CDISCPILOT01","FT","CDISC002",213,"AVL0209","AVL02-List A Word 9","AVLT-REY","FORM 1","RECALLED","RECALLED",null,"",5,8,"WEEK 8","TREATMENT","2013-01-08T12:20",55,"",null,"",""],[622,"CDISCPILOT01","FT","CDISC002",214,"AVL0210","AVL02-List A Word 10","AVLT-REY","FORM 1","RECALLED","RECALLED",null,"",5,8,"WEEK 8","TREATMENT","2013-01-08T12:20",55,"",null,"",""],[623,"CDISCPILOT01","FT","CDISC002",215,"AVL0211","AVL02-List A Word 11","AVLT-REY","FORM 1","NOT RECALLED","NOT RECALLED",null,"",5,8,"WEEK 8","TREATMENT","2013-01-08T12:20",55,"",null,"",""],[624,"CDISCPILOT01","FT","CDISC002",216,"AVL0212","AVL02-List A Word 12","AVLT-REY","FORM 1","NOT RECALLED","NOT RECALLED",null,"",5,8,"WEEK 8","TREATMENT","2013-01-08T12:20",55,"",null,"",""],[625,"CDISCPILOT01","FT","CDISC002",217,"AVL0213","AVL02-List A Word 13","AVLT-REY","FORM 1","NOT RECALLED","NOT RECALLED",null,"",5,8,"WEEK 8","TREATMENT","2013-01-08T12:20",55,"",null,"",""],[626,"CDISCPILOT01","FT","CDISC002",218,"AVL0214","AVL02-List A Word 14","AVLT-REY","FORM 1","NOT RECALLED","NOT RECALLED",null,"",5,8,"WEEK 8","TREATMENT","2013-01-08T12:20",55,"",null,"",""],[627,"CDISCPILOT01","FT","CDISC002",219,"AVL0215","AVL02-List A Word 15","AVLT-REY","FORM 1","NOT RECALLED","NOT RECALLED",null,"",5,8,"WEEK 8","TREATMENT","2013-01-08T12:20",55,"",null,"",""],[628,"CDISCPILOT01","FT","CDISC002",220,"AVL0216","AVL02-List A Total","AVLT-REY","FORM 1","7","7",7,"",5,8,"WEEK 8","TREATMENT","2013-01-08T12:20",55,"",null,"",""],[629,"CDISCPILOT01","FT","CDISC002",221,"AVL0217","AVL02-List A Intrusions","AVLT-REY","FORM 1","0","0",0,"",5,8,"WEEK 8","TREATMENT","2013-01-08T12:20",55,"",null,"",""],[630,"CDISCPILOT01","FT","CDISC002",222,"AVL0218","AVL02-List B Word 1","AVLT-REY","FORM 1","RECALLED","RECALLED",null,"",null,8,"WEEK 8","TREATMENT","2013-01-08T12:25",55,"",null,"",""],[631,"CDISCPILOT01","FT","CDISC002",223,"AVL0219","AVL02-List B Word 2","AVLT-REY","FORM 1","RECALLED","RECALLED",null,"",null,8,"WEEK 8","TREATMENT","2013-01-08T12:25",55,"",null,"",""],[632,"CDISCPILOT01","FT","CDISC002",224,"AVL0220","AVL02-List B Word 3","AVLT-REY","FORM 1","RECALLED","RECALLED",null,"",null,8,"WEEK 8","TREATMENT","2013-01-08T12:25",55,"",null,"",""],[633,"CDISCPILOT01","FT","CDISC002",225,"AVL0221","AVL02-List B Word 4","AVLT-REY","FORM 1","NOT RECALLED","NOT RECALLED",null,"",null,8,"WEEK 8","TREATMENT","2013-01-08T12:25",55,"",null,"",""],[634,"CDISCPILOT01","FT","CDISC002",226,"AVL0222","AVL02-List B Word 5","AVLT-REY","FORM 1","NOT RECALLED","NOT RECALLED",null,"",null,8,"WEEK 8","TREATMENT","2013-01-08T12:25",55,"",null,"",""],[635,"CDISCPILOT01","FT","CDISC002",227,"AVL0223","AVL02-List B Word 6","AVLT-REY","FORM 1","RECALLED","RECALLED",null,"",null,8,"WEEK 8","TREATMENT","2013-01-08T12:25",55,"",null,"",""],[636,"CDISCPILOT01","FT","CDISC002",228,"AVL0224","AVL02-List B Word 7","AVLT-REY","FORM 1","NOT RECALLED","NOT RECALLED",null,"",null,8,"WEEK 8","TREATMENT","2013-01-08T12:25",55,"",null,"",""],[637,"CDISCPILOT01","FT","CDISC002",229,"AVL0225","AVL02-List B Word 8","AVLT-REY","FORM 1","NOT RECALLED","NOT RECALLED",null,"",null,8,"WEEK 8","TREATMENT","2013-01-08T12:25",55,"",null,"",""],[638,"CDISCPILOT01","FT","CDISC002",230,"AVL0226","AVL02-List B Word 9","AVLT-REY","FORM 1","NOT RECALLED","NOT RECALLED",null,"",null,8,"WEEK 8","TREATMENT","2013-01-08T12:25",55,"",null,"",""],[639,"CDISCPILOT01","FT","CDISC002",231,"AVL0227","AVL02-List B Word 10","AVLT-REY","FORM 1","NOT RECALLED","NOT RECALLED",null,"",null,8,"WEEK 8","TREATMENT","2013-01-08T12:25",55,"",null,"",""],[640,"CDISCPILOT01","FT","CDISC002",232,"AVL0228","AVL02-List B Word 11","AVLT-REY","FORM 1","NOT RECALLED","NOT RECALLED",null,"",null,8,"WEEK 8","TREATMENT","2013-01-08T12:25",55,"",null,"",""],[641,"CDISCPILOT01","FT","CDISC002",233,"AVL0229","AVL02-List B Word 12","AVLT-REY","FORM 1","NOT RECALLED","NOT RECALLED",null,"",null,8,"WEEK 8","TREATMENT","2013-01-08T12:25",55,"",null,"",""],[642,"CDISCPILOT01","FT","CDISC002",234,"AVL0230","AVL02-List B Word 13","AVLT-REY","FORM 1","NOT RECALLED","NOT RECALLED",null,"",null,8,"WEEK 8","TREATMENT","2013-01-08T12:25",55,"",null,"",""],[643,"CDISCPILOT01","FT","CDISC002",235,"AVL0231","AVL02-List B Word 14","AVLT-REY","FORM 1","NOT RECALLED","NOT RECALLED",null,"",null,8,"WEEK 8","TREATMENT","2013-01-08T12:25",55,"",null,"",""],[644,"CDISCPILOT01","FT","CDISC002",236,"AVL0232","AVL02-List B Word 15","AVLT-REY","FORM 1","NOT RECALLED","NOT RECALLED",null,"",null,8,"WEEK 8","TREATMENT","2013-01-08T12:25",55,"",null,"",""],[645,"CDISCPILOT01","FT","CDISC002",237,"AVL0233","AVL02- List B Total","AVLT-REY","FORM 1","4","4",4,"",null,8,"WEEK 8","TREATMENT","2013-01-08T12:25",55,"",null,"",""],[646,"CDISCPILOT01","FT","CDISC002",238,"AVL0234","AVL02-List B Intrusions","AVLT-REY","FORM 1","1","1",1,"",null,8,"WEEK 8","TREATMENT","2013-01-08T12:25",55,"",null,"",""],[647,"CDISCPILOT01","FT","CDISC002",239,"AVL0201","AVL02-List A Word 1","AVLT-REY","FORM 1","RECALLED","RECALLED",null,"",6,8,"WEEK 8","TREATMENT","2013-01-08T12:30",55,"",null,"",""],[648,"CDISCPILOT01","FT","CDISC002",240,"AVL0202","AVL02-List A Word 2","AVLT-REY","FORM 1","RECALLED","RECALLED",null,"",6,8,"WEEK 8","TREATMENT","2013-01-08T12:30",55,"",null,"",""],[649,"CDISCPILOT01","FT","CDISC002",241,"AVL0203","AVL02-List A Word 3","AVLT-REY","FORM 1","RECALLED","RECALLED",null,"",6,8,"WEEK 8","TREATMENT","2013-01-08T12:30",55,"",null,"",""],[650,"CDISCPILOT01","FT","CDISC002",242,"AVL0204","AVL02-List A Word 4","AVLT-REY","FORM 1","NOT RECALLED","NOT RECALLED",null,"",6,8,"WEEK 8","TREATMENT","2013-01-08T12:30",55,"",null,"",""],[651,"CDISCPILOT01","FT","CDISC002",243,"AVL0205","AVL02-List A Word 5","AVLT-REY","FORM 1","NOT RECALLED","NOT RECALLED",null,"",6,8,"WEEK 8","TREATMENT","2013-01-08T12:30",55,"",null,"",""],[652,"CDISCPILOT01","FT","CDISC002",244,"AVL0206","AVL02-List A Word 6","AVLT-REY","FORM 1","NOT RECALLED","NOT RECALLED",null,"",6,8,"WEEK 8","TREATMENT","2013-01-08T12:30",55,"",null,"",""],[653,"CDISCPILOT01","FT","CDISC002",245,"AVL0207","AVL02-List A Word 7","AVLT-REY","FORM 1","NOT RECALLED","NOT RECALLED",null,"",6,8,"WEEK 8","TREATMENT","2013-01-08T12:30",55,"",null,"",""],[654,"CDISCPILOT01","FT","CDISC002",246,"AVL0208","AVL02-List A Word 8","AVLT-REY","FORM 1","RECALLED","RECALLED",null,"",6,8,"WEEK 8","TREATMENT","2013-01-08T12:30",55,"",null,"",""],[655,"CDISCPILOT01","FT","CDISC002",247,"AVL0209","AVL02-List A Word 9","AVLT-REY","FORM 1","RECALLED","RECALLED",null,"",6,8,"WEEK 8","TREATMENT","2013-01-08T12:30",55,"",null,"",""],[656,"CDISCPILOT01","FT","CDISC002",248,"AVL0210","AVL02-List A Word 10","AVLT-REY","FORM 1","RECALLED","RECALLED",null,"",6,8,"WEEK 8","TREATMENT","2013-01-08T12:30",55,"",null,"",""],[657,"CDISCPILOT01","FT","CDISC002",249,"AVL0211","AVL02-List A Word 11","AVLT-REY","FORM 1","NOT RECALLED","NOT RECALLED",null,"",6,8,"WEEK 8","TREATMENT","2013-01-08T12:30",55,"",null,"",""],[658,"CDISCPILOT01","FT","CDISC002",250,"AVL0212","AVL02-List A Word 12","AVLT-REY","FORM 1","NOT RECALLED","NOT RECALLED",null,"",6,8,"WEEK 8","TREATMENT","2013-01-08T12:30",55,"",null,"",""],[659,"CDISCPILOT01","FT","CDISC002",251,"AVL0213","AVL02-List A Word 13","AVLT-REY","FORM 1","NOT RECALLED","NOT RECALLED",null,"",6,8,"WEEK 8","TREATMENT","2013-01-08T12:30",55,"",null,"",""],[660,"CDISCPILOT01","FT","CDISC002",252,"AVL0214","AVL02-List A Word 14","AVLT-REY","FORM 1","NOT RECALLED","NOT RECALLED",null,"",6,8,"WEEK 8","TREATMENT","2013-01-08T12:30",55,"",null,"",""],[661,"CDISCPILOT01","FT","CDISC002",253,"AVL0215","AVL02-List A Word 15","AVLT-REY","FORM 1","NOT RECALLED","NOT RECALLED",null,"",6,8,"WEEK 8","TREATMENT","2013-01-08T12:30",55,"",null,"",""],[662,"CDISCPILOT01","FT","CDISC002",254,"AVL0216","AVL02-List A Total","AVLT-REY","FORM 1","6","6",6,"",6,8,"WEEK 8","TREATMENT","2013-01-08T12:30",55,"",null,"",""],[663,"CDISCPILOT01","FT","CDISC002",255,"AVL0217","AVL02-List A Intrusions","AVLT-REY","FORM 1","0","0",0,"",6,8,"WEEK 8","TREATMENT","2013-01-08T12:30",55,"",null,"",""],[664,"CDISCPILOT01","FT","CDISC002",256,"AVL0201","AVL02-List A Word 1","AVLT-REY","FORM 1","RECALLED","RECALLED",null,"",7,8,"WEEK 8","TREATMENT","2013-01-08T13:00",55,"30 MIN POST",1,"PT30M","LIST A RECALL 6"],[665,"CDISCPILOT01","FT","CDISC002",257,"AVL0202","AVL02-List A Word 2","AVLT-REY","FORM 1","RECALLED","RECALLED",null,"",7,8,"WEEK 8","TREATMENT","2013-01-08T13:00",55,"30 MIN POST",1,"PT30M","LIST A RECALL 6"],[666,"CDISCPILOT01","FT","CDISC002",258,"AVL0203","AVL02-List A Word 3","AVLT-REY","FORM 1","RECALLED","RECALLED",null,"",7,8,"WEEK 8","TREATMENT","2013-01-08T13:00",55,"30 MIN POST",1,"PT30M","LIST A RECALL 6"],[667,"CDISCPILOT01","FT","CDISC002",259,"AVL0204","AVL02-List A Word 4","AVLT-REY","FORM 1","NOT RECALLED","NOT RECALLED",null,"",7,8,"WEEK 8","TREATMENT","2013-01-08T13:00",55,"30 MIN POST",1,"PT30M","LIST A RECALL 6"],[668,"CDISCPILOT01","FT","CDISC002",260,"AVL0205","AVL02-List A Word 5","AVLT-REY","FORM 1","NOT RECALLED","NOT RECALLED",null,"",7,8,"WEEK 8","TREATMENT","2013-01-08T13:00",55,"30 MIN POST",1,"PT30M","LIST A RECALL 6"],[669,"CDISCPILOT01","FT","CDISC002",261,"AVL0206","AVL02-List A Word 6","AVLT-REY","FORM 1","NOT RECALLED","NOT RECALLED",null,"",7,8,"WEEK 8","TREATMENT","2013-01-08T13:00",55,"30 MIN POST",1,"PT30M","LIST A RECALL 6"],[670,"CDISCPILOT01","FT","CDISC002",262,"AVL0207","AVL02-List A Word 7","AVLT-REY","FORM 1","NOT RECALLED","NOT RECALLED",null,"",7,8,"WEEK 8","TREATMENT","2013-01-08T13:00",55,"30 MIN POST",1,"PT30M","LIST A RECALL 6"],[671,"CDISCPILOT01","FT","CDISC002",263,"AVL0208","AVL02-List A Word 8","AVLT-REY","FORM 1","NOT RECALLED","NOT RECALLED",null,"",7,8,"WEEK 8","TREATMENT","2013-01-08T13:00",55,"30 MIN POST",1,"PT30M","LIST A RECALL 6"],[672,"CDISCPILOT01","FT","CDISC002",264,"AVL0209","AVL02-List A Word 9","AVLT-REY","FORM 1","NOT RECALLED","NOT RECALLED",null,"",7,8,"WEEK 8","TREATMENT","2013-01-08T13:00",55,"30 MIN POST",1,"PT30M","LIST A RECALL 6"],[673,"CDISCPILOT01","FT","CDISC002",265,"AVL0210","AVL02-List A Word 10","AVLT-REY","FORM 1","RECALLED","RECALLED",null,"",7,8,"WEEK 8","TREATMENT","2013-01-08T13:00",55,"30 MIN POST",1,"PT30M","LIST A RECALL 6"],[674,"CDISCPILOT01","FT","CDISC002",266,"AVL0211","AVL02-List A Word 11","AVLT-REY","FORM 1","NOT RECALLED","NOT RECALLED",null,"",7,8,"WEEK 8","TREATMENT","2013-01-08T13:00",55,"30 MIN POST",1,"PT30M","LIST A RECALL 6"],[675,"CDISCPILOT01","FT","CDISC002",267,"AVL0212","AVL02-List A Word 12","AVLT-REY","FORM 1","NOT RECALLED","NOT RECALLED",null,"",7,8,"WEEK 8","TREATMENT","2013-01-08T13:00",55,"30 MIN POST",1,"PT30M","LIST A RECALL 6"],[676,"CDISCPILOT01","FT","CDISC002",268,"AVL0213","AVL02-List A Word 13","AVLT-REY","FORM 1","NOT RECALLED","NOT RECALLED",null,"",7,8,"WEEK 8","TREATMENT","2013-01-08T13:00",55,"30 MIN POST",1,"PT30M","LIST A RECALL 6"],[677,"CDISCPILOT01","FT","CDISC002",269,"AVL0214","AVL02-List A Word 14","AVLT-REY","FORM 1","NOT RECALLED","NOT RECALLED",null,"",7,8,"WEEK 8","TREATMENT","2013-01-08T13:00",55,"30 MIN POST",1,"PT30M","LIST A RECALL 6"],[678,"CDISCPILOT01","FT","CDISC002",270,"AVL0215","AVL02-List A Word 15","AVLT-REY","FORM 1","NOT RECALLED","NOT RECALLED",null,"",7,8,"WEEK 8","TREATMENT","2013-01-08T13:00",55,"30 MIN POST",1,"PT30M","LIST A RECALL 6"],[679,"CDISCPILOT01","FT","CDISC002",271,"AVL0216","AVL02-List A Total","AVLT-REY","FORM 1","4","4",4,"",7,8,"WEEK 8","TREATMENT","2013-01-08T13:00",55,"30 MIN POST",1,"PT30M","LIST A RECALL 6"],[680,"CDISCPILOT01","FT","CDISC002",272,"AVL0217","AVL02-List A Intrusions","AVLT-REY","FORM 1","1","1",1,"",7,8,"WEEK 8","TREATMENT","2013-01-08T13:00",55,"30 MIN POST",1,"PT30M","LIST A RECALL 6"],[681,"CDISCPILOT01","FT","CDISC003",1,"AVL0201","AVL02-List A Word 1","AVLT-REY","FORM 1","RECALLED","RECALLED",null,"Y",1,2,"SCREENING 2","SCREENING","2013-08-27T12:00",-2,"",null,"",""],[682,"CDISCPILOT01","FT","CDISC003",2,"AVL0202","AVL02-List A Word 2","AVLT-REY","FORM 1","RECALLED","RECALLED",null,"Y",1,2,"SCREENING 2","SCREENING","2013-08-27T12:00",-2,"",null,"",""],[683,"CDISCPILOT01","FT","CDISC003",3,"AVL0203","AVL02-List A Word 3","AVLT-REY","FORM 1","RECALLED","RECALLED",null,"Y",1,2,"SCREENING 2","SCREENING","2013-08-27T12:00",-2,"",null,"",""],[684,"CDISCPILOT01","FT","CDISC003",4,"AVL0204","AVL02-List A Word 4","AVLT-REY","FORM 1","RECALLED","RECALLED",null,"Y",1,2,"SCREENING 2","SCREENING","2013-08-27T12:00",-2,"",null,"",""],[685,"CDISCPILOT01","FT","CDISC003",5,"AVL0205","AVL02-List A Word 5","AVLT-REY","FORM 1","RECALLED","RECALLED",null,"Y",1,2,"SCREENING 2","SCREENING","2013-08-27T12:00",-2,"",null,"",""],[686,"CDISCPILOT01","FT","CDISC003",6,"AVL0206","AVL02-List A Word 6","AVLT-REY","FORM 1","NOT RECALLED","NOT RECALLED",null,"Y",1,2,"SCREENING 2","SCREENING","2013-08-27T12:00",-2,"",null,"",""],[687,"CDISCPILOT01","FT","CDISC003",7,"AVL0207","AVL02-List A Word 7","AVLT-REY","FORM 1","NOT RECALLED","NOT RECALLED",null,"Y",1,2,"SCREENING 2","SCREENING","2013-08-27T12:00",-2,"",null,"",""],[688,"CDISCPILOT01","FT","CDISC003",8,"AVL0208","AVL02-List A Word 8","AVLT-REY","FORM 1","RECALLED","RECALLED",null,"Y",1,2,"SCREENING 2","SCREENING","2013-08-27T12:00",-2,"",null,"",""],[689,"CDISCPILOT01","FT","CDISC003",9,"AVL0209","AVL02-List A Word 9","AVLT-REY","FORM 1","RECALLED","RECALLED",null,"Y",1,2,"SCREENING 2","SCREENING","2013-08-27T12:00",-2,"",null,"",""],[690,"CDISCPILOT01","FT","CDISC003",10,"AVL0210","AVL02-List A Word 10","AVLT-REY","FORM 1","RECALLED","RECALLED",null,"Y",1,2,"SCREENING 2","SCREENING","2013-08-27T12:00",-2,"",null,"",""],[691,"CDISCPILOT01","FT","CDISC003",11,"AVL0211","AVL02-List A Word 11","AVLT-REY","FORM 1","RECALLED","RECALLED",null,"Y",1,2,"SCREENING 2","SCREENING","2013-08-27T12:00",-2,"",null,"",""],[692,"CDISCPILOT01","FT","CDISC003",12,"AVL0212","AVL02-List A Word 12","AVLT-REY","FORM 1","NOT RECALLED","NOT RECALLED",null,"Y",1,2,"SCREENING 2","SCREENING","2013-08-27T12:00",-2,"",null,"",""],[693,"CDISCPILOT01","FT","CDISC003",13,"AVL0213","AVL02-List A Word 13","AVLT-REY","FORM 1","NOT RECALLED","NOT RECALLED",null,"Y",1,2,"SCREENING 2","SCREENING","2013-08-27T12:00",-2,"",null,"",""],[694,"CDISCPILOT01","FT","CDISC003",14,"AVL0214","AVL02-List A Word 14","AVLT-REY","FORM 1","NOT RECALLED","NOT RECALLED",null,"Y",1,2,"SCREENING 2","SCREENING","2013-08-27T12:00",-2,"",null,"",""],[695,"CDISCPILOT01","FT","CDISC003",15,"AVL0215","AVL02-List A Word 15","AVLT-REY","FORM 1","NOT RECALLED","NOT RECALLED",null,"Y",1,2,"SCREENING 2","SCREENING","2013-08-27T12:00",-2,"",null,"",""],[696,"CDISCPILOT01","FT","CDISC003",16,"AVL0216","AVL02-List A Total","AVLT-REY","FORM 1","9","9",9,"Y",1,2,"SCREENING 2","SCREENING","2013-08-27T12:00",-2,"",null,"",""],[697,"CDISCPILOT01","FT","CDISC003",17,"AVL0217","AVL02-List A Intrusions","AVLT-REY","FORM 1","0","0",0,"Y",1,2,"SCREENING 2","SCREENING","2013-08-27T12:00",-2,"",null,"",""],[698,"CDISCPILOT01","FT","CDISC003",18,"AVL0201","AVL02-List A Word 1","AVLT-REY","FORM 1","RECALLED","RECALLED",null,"Y",2,2,"SCREENING 2","SCREENING","2013-08-27T12:05",-2,"",null,"",""],[699,"CDISCPILOT01","FT","CDISC003",19,"AVL0202","AVL02-List A Word 2","AVLT-REY","FORM 1","RECALLED","RECALLED",null,"Y",2,2,"SCREENING 2","SCREENING","2013-08-27T12:05",-2,"",null,"",""],[700,"CDISCPILOT01","FT","CDISC003",20,"AVL0203","AVL02-List A Word 3","AVLT-REY","FORM 1","RECALLED","RECALLED",null,"Y",2,2,"SCREENING 2","SCREENING","2013-08-27T12:05",-2,"",null,"",""],[701,"CDISCPILOT01","FT","CDISC003",21,"AVL0204","AVL02-List A Word 4","AVLT-REY","FORM 1","RECALLED","RECALLED",null,"Y",2,2,"SCREENING 2","SCREENING","2013-08-27T12:05",-2,"",null,"",""],[702,"CDISCPILOT01","FT","CDISC003",22,"AVL0205","AVL02-List A Word 5","AVLT-REY","FORM 1","RECALLED","RECALLED",null,"Y",2,2,"SCREENING 2","SCREENING","2013-08-27T12:05",-2,"",null,"",""],[703,"CDISCPILOT01","FT","CDISC003",23,"AVL0206","AVL02-List A Word 6","AVLT-REY","FORM 1","RECALLED","RECALLED",null,"Y",2,2,"SCREENING 2","SCREENING","2013-08-27T12:05",-2,"",null,"",""],[704,"CDISCPILOT01","FT","CDISC003",24,"AVL0207","AVL02-List A Word 7","AVLT-REY","FORM 1","NOT RECALLED","NOT RECALLED",null,"Y",2,2,"SCREENING 2","SCREENING","2013-08-27T12:05",-2,"",null,"",""],[705,"CDISCPILOT01","FT","CDISC003",25,"AVL0208","AVL02-List A Word 8","AVLT-REY","FORM 1","RECALLED","RECALLED",null,"Y",2,2,"SCREENING 2","SCREENING","2013-08-27T12:05",-2,"",null,"",""],[706,"CDISCPILOT01","FT","CDISC003",26,"AVL0209","AVL02-List A Word 9","AVLT-REY","FORM 1","RECALLED","RECALLED",null,"Y",2,2,"SCREENING 2","SCREENING","2013-08-27T12:05",-2,"",null,"",""],[707,"CDISCPILOT01","FT","CDISC003",27,"AVL0210","AVL02-List A Word 10","AVLT-REY","FORM 1","RECALLED","RECALLED",null,"Y",2,2,"SCREENING 2","SCREENING","2013-08-27T12:05",-2,"",null,"",""],[708,"CDISCPILOT01","FT","CDISC003",28,"AVL0211","AVL02-List A Word 11","AVLT-REY","FORM 1","RECALLED","RECALLED",null,"Y",2,2,"SCREENING 2","SCREENING","2013-08-27T12:05",-2,"",null,"",""],[709,"CDISCPILOT01","FT","CDISC003",29,"AVL0212","AVL02-List A Word 12","AVLT-REY","FORM 1","NOT RECALLED","NOT RECALLED",null,"Y",2,2,"SCREENING 2","SCREENING","2013-08-27T12:05",-2,"",null,"",""],[710,"CDISCPILOT01","FT","CDISC003",30,"AVL0213","AVL02-List A Word 13","AVLT-REY","FORM 1","NOT RECALLED","NOT RECALLED",null,"Y",2,2,"SCREENING 2","SCREENING","2013-08-27T12:05",-2,"",null,"",""],[711,"CDISCPILOT01","FT","CDISC003",31,"AVL0214","AVL02-List A Word 14","AVLT-REY","FORM 1","NOT RECALLED","NOT RECALLED",null,"Y",2,2,"SCREENING 2","SCREENING","2013-08-27T12:05",-2,"",null,"",""],[712,"CDISCPILOT01","FT","CDISC003",32,"AVL0215","AVL02-List A Word 15","AVLT-REY","FORM 1","NOT RECALLED","NOT RECALLED",null,"Y",2,2,"SCREENING 2","SCREENING","2013-08-27T12:05",-2,"",null,"",""],[713,"CDISCPILOT01","FT","CDISC003",33,"AVL0216","AVL02-List A Total","AVLT-REY","FORM 1","10","10",10,"Y",2,2,"SCREENING 2","SCREENING","2013-08-27T12:05",-2,"",null,"",""],[714,"CDISCPILOT01","FT","CDISC003",34,"AVL0217","AVL02-List A Intrusions","AVLT-REY","FORM 1","2","2",2,"Y",2,2,"SCREENING 2","SCREENING","2013-08-27T12:05",-2,"",null,"",""],[715,"CDISCPILOT01","FT","CDISC003",35,"AVL0201","AVL02-List A Word 1","AVLT-REY","FORM 1","RECALLED","RECALLED",null,"Y",3,2,"SCREENING 2","SCREENING","2013-08-27T12:10",-2,"",null,"",""],[716,"CDISCPILOT01","FT","CDISC003",36,"AVL0202","AVL02-List A Word 2","AVLT-REY","FORM 1","RECALLED","RECALLED",null,"Y",3,2,"SCREENING 2","SCREENING","2013-08-27T12:10",-2,"",null,"",""],[717,"CDISCPILOT01","FT","CDISC003",37,"AVL0203","AVL02-List A Word 3","AVLT-REY","FORM 1","RECALLED","RECALLED",null,"Y",3,2,"SCREENING 2","SCREENING","2013-08-27T12:10",-2,"",null,"",""],[718,"CDISCPILOT01","FT","CDISC003",38,"AVL0204","AVL02-List A Word 4","AVLT-REY","FORM 1","RECALLED","RECALLED",null,"Y",3,2,"SCREENING 2","SCREENING","2013-08-27T12:10",-2,"",null,"",""],[719,"CDISCPILOT01","FT","CDISC003",39,"AVL0205","AVL02-List A Word 5","AVLT-REY","FORM 1","RECALLED","RECALLED",null,"Y",3,2,"SCREENING 2","SCREENING","2013-08-27T12:10",-2,"",null,"",""],[720,"CDISCPILOT01","FT","CDISC003",40,"AVL0206","AVL02-List A Word 6","AVLT-REY","FORM 1","RECALLED","RECALLED",null,"Y",3,2,"SCREENING 2","SCREENING","2013-08-27T12:10",-2,"",null,"",""],[721,"CDISCPILOT01","FT","CDISC003",41,"AVL0207","AVL02-List A Word 7","AVLT-REY","FORM 1","RECALLED","RECALLED",null,"Y",3,2,"SCREENING 2","SCREENING","2013-08-27T12:10",-2,"",null,"",""],[722,"CDISCPILOT01","FT","CDISC003",42,"AVL0208","AVL02-List A Word 8","AVLT-REY","FORM 1","RECALLED","RECALLED",null,"Y",3,2,"SCREENING 2","SCREENING","2013-08-27T12:10",-2,"",null,"",""],[723,"CDISCPILOT01","FT","CDISC003",43,"AVL0209","AVL02-List A Word 9","AVLT-REY","FORM 1","RECALLED","RECALLED",null,"Y",3,2,"SCREENING 2","SCREENING","2013-08-27T12:10",-2,"",null,"",""],[724,"CDISCPILOT01","FT","CDISC003",44,"AVL0210","AVL02-List A Word 10","AVLT-REY","FORM 1","RECALLED","RECALLED",null,"Y",3,2,"SCREENING 2","SCREENING","2013-08-27T12:10",-2,"",null,"",""],[725,"CDISCPILOT01","FT","CDISC003",45,"AVL0211","AVL02-List A Word 11","AVLT-REY","FORM 1","RECALLED","RECALLED",null,"Y",3,2,"SCREENING 2","SCREENING","2013-08-27T12:10",-2,"",null,"",""],[726,"CDISCPILOT01","FT","CDISC003",46,"AVL0212","AVL02-List A Word 12","AVLT-REY","FORM 1","NOT RECALLED","NOT RECALLED",null,"Y",3,2,"SCREENING 2","SCREENING","2013-08-27T12:10",-2,"",null,"",""],[727,"CDISCPILOT01","FT","CDISC003",47,"AVL0213","AVL02-List A Word 13","AVLT-REY","FORM 1","NOT RECALLED","NOT RECALLED",null,"Y",3,2,"SCREENING 2","SCREENING","2013-08-27T12:10",-2,"",null,"",""],[728,"CDISCPILOT01","FT","CDISC003",48,"AVL0214","AVL02-List A Word 14","AVLT-REY","FORM 1","NOT RECALLED","NOT RECALLED",null,"Y",3,2,"SCREENING 2","SCREENING","2013-08-27T12:10",-2,"",null,"",""],[729,"CDISCPILOT01","FT","CDISC003",49,"AVL0215","AVL02-List A Word 15","AVLT-REY","FORM 1","NOT RECALLED","NOT RECALLED",null,"Y",3,2,"SCREENING 2","SCREENING","2013-08-27T12:10",-2,"",null,"",""],[730,"CDISCPILOT01","FT","CDISC003",50,"AVL0216","AVL02-List A Total","AVLT-REY","FORM 1","11","11",11,"Y",3,2,"SCREENING 2","SCREENING","2013-08-27T12:10",-2,"",null,"",""],[731,"CDISCPILOT01","FT","CDISC003",51,"AVL0217","AVL02-List A Intrusions","AVLT-REY","FORM 1","1","1",1,"Y",3,2,"SCREENING 2","SCREENING","2013-08-27T12:10",-2,"",null,"",""],[732,"CDISCPILOT01","FT","CDISC003",52,"AVL0201","AVL02-List A Word 1","AVLT-REY","FORM 1","RECALLED","RECALLED",null,"Y",4,2,"SCREENING 2","SCREENING","2013-08-27T12:15",-2,"",null,"",""],[733,"CDISCPILOT01","FT","CDISC003",53,"AVL0202","AVL02-List A Word 2","AVLT-REY","FORM 1","RECALLED","RECALLED",null,"Y",4,2,"SCREENING 2","SCREENING","2013-08-27T12:15",-2,"",null,"",""],[734,"CDISCPILOT01","FT","CDISC003",54,"AVL0203","AVL02-List A Word 3","AVLT-REY","FORM 1","RECALLED","RECALLED",null,"Y",4,2,"SCREENING 2","SCREENING","2013-08-27T12:15",-2,"",null,"",""],[735,"CDISCPILOT01","FT","CDISC003",55,"AVL0204","AVL02-List A Word 4","AVLT-REY","FORM 1","RECALLED","RECALLED",null,"Y",4,2,"SCREENING 2","SCREENING","2013-08-27T12:15",-2,"",null,"",""],[736,"CDISCPILOT01","FT","CDISC003",56,"AVL0205","AVL02-List A Word 5","AVLT-REY","FORM 1","RECALLED","RECALLED",null,"Y",4,2,"SCREENING 2","SCREENING","2013-08-27T12:15",-2,"",null,"",""],[737,"CDISCPILOT01","FT","CDISC003",57,"AVL0206","AVL02-List A Word 6","AVLT-REY","FORM 1","RECALLED","RECALLED",null,"Y",4,2,"SCREENING 2","SCREENING","2013-08-27T12:15",-2,"",null,"",""],[738,"CDISCPILOT01","FT","CDISC003",58,"AVL0207","AVL02-List A Word 7","AVLT-REY","FORM 1","RECALLED","RECALLED",null,"Y",4,2,"SCREENING 2","SCREENING","2013-08-27T12:15",-2,"",null,"",""],[739,"CDISCPILOT01","FT","CDISC003",59,"AVL0208","AVL02-List A Word 8","AVLT-REY","FORM 1","RECALLED","RECALLED",null,"Y",4,2,"SCREENING 2","SCREENING","2013-08-27T12:15",-2,"",null,"",""],[740,"CDISCPILOT01","FT","CDISC003",60,"AVL0209","AVL02-List A Word 9","AVLT-REY","FORM 1","RECALLED","RECALLED",null,"Y",4,2,"SCREENING 2","SCREENING","2013-08-27T12:15",-2,"",null,"",""],[741,"CDISCPILOT01","FT","CDISC003",61,"AVL0210","AVL02-List A Word 10","AVLT-REY","FORM 1","RECALLED","RECALLED",null,"Y",4,2,"SCREENING 2","SCREENING","2013-08-27T12:15",-2,"",null,"",""],[742,"CDISCPILOT01","FT","CDISC003",62,"AVL0211","AVL02-List A Word 11","AVLT-REY","FORM 1","RECALLED","RECALLED",null,"Y",4,2,"SCREENING 2","SCREENING","2013-08-27T12:15",-2,"",null,"",""],[743,"CDISCPILOT01","FT","CDISC003",63,"AVL0212","AVL02-List A Word 12","AVLT-REY","FORM 1","RECALLED","RECALLED",null,"Y",4,2,"SCREENING 2","SCREENING","2013-08-27T12:15",-2,"",null,"",""],[744,"CDISCPILOT01","FT","CDISC003",64,"AVL0213","AVL02-List A Word 13","AVLT-REY","FORM 1","NOT RECALLED","NOT RECALLED",null,"Y",4,2,"SCREENING 2","SCREENING","2013-08-27T12:15",-2,"",null,"",""],[745,"CDISCPILOT01","FT","CDISC003",65,"AVL0214","AVL02-List A Word 14","AVLT-REY","FORM 1","NOT RECALLED","NOT RECALLED",null,"Y",4,2,"SCREENING 2","SCREENING","2013-08-27T12:15",-2,"",null,"",""],[746,"CDISCPILOT01","FT","CDISC003",66,"AVL0215","AVL02-List A Word 15","AVLT-REY","FORM 1","NOT RECALLED","NOT RECALLED",null,"Y",4,2,"SCREENING 2","SCREENING","2013-08-27T12:15",-2,"",null,"",""],[747,"CDISCPILOT01","FT","CDISC003",67,"AVL0216","AVL02-List A Total","AVLT-REY","FORM 1","12","12",12,"Y",4,2,"SCREENING 2","SCREENING","2013-08-27T12:15",-2,"",null,"",""],[748,"CDISCPILOT01","FT","CDISC003",68,"AVL0217","AVL02-List A Intrusions","AVLT-REY","FORM 1","2","2",2,"Y",4,2,"SCREENING 2","SCREENING","2013-08-27T12:15",-2,"",null,"",""],[749,"CDISCPILOT01","FT","CDISC003",69,"AVL0201","AVL02-List A Word 1","AVLT-REY","FORM 1","RECALLED","RECALLED",null,"Y",5,2,"SCREENING 2","SCREENING","2013-08-27T12:20",-2,"",null,"",""],[750,"CDISCPILOT01","FT","CDISC003",70,"AVL0202","AVL02-List A Word 2","AVLT-REY","FORM 1","RECALLED","RECALLED",null,"Y",5,2,"SCREENING 2","SCREENING","2013-08-27T12:20",-2,"",null,"",""],[751,"CDISCPILOT01","FT","CDISC003",71,"AVL0203","AVL02-List A Word 3","AVLT-REY","FORM 1","RECALLED","RECALLED",null,"Y",5,2,"SCREENING 2","SCREENING","2013-08-27T12:20",-2,"",null,"",""],[752,"CDISCPILOT01","FT","CDISC003",72,"AVL0204","AVL02-List A Word 4","AVLT-REY","FORM 1","RECALLED","RECALLED",null,"Y",5,2,"SCREENING 2","SCREENING","2013-08-27T12:20",-2,"",null,"",""],[753,"CDISCPILOT01","FT","CDISC003",73,"AVL0205","AVL02-List A Word 5","AVLT-REY","FORM 1","RECALLED","RECALLED",null,"Y",5,2,"SCREENING 2","SCREENING","2013-08-27T12:20",-2,"",null,"",""],[754,"CDISCPILOT01","FT","CDISC003",74,"AVL0206","AVL02-List A Word 6","AVLT-REY","FORM 1","RECALLED","RECALLED",null,"Y",5,2,"SCREENING 2","SCREENING","2013-08-27T12:20",-2,"",null,"",""],[755,"CDISCPILOT01","FT","CDISC003",75,"AVL0207","AVL02-List A Word 7","AVLT-REY","FORM 1","RECALLED","RECALLED",null,"Y",5,2,"SCREENING 2","SCREENING","2013-08-27T12:20",-2,"",null,"",""],[756,"CDISCPILOT01","FT","CDISC003",76,"AVL0208","AVL02-List A Word 8","AVLT-REY","FORM 1","RECALLED","RECALLED",null,"Y",5,2,"SCREENING 2","SCREENING","2013-08-27T12:20",-2,"",null,"",""],[757,"CDISCPILOT01","FT","CDISC003",77,"AVL0209","AVL02-List A Word 9","AVLT-REY","FORM 1","RECALLED","RECALLED",null,"Y",5,2,"SCREENING 2","SCREENING","2013-08-27T12:20",-2,"",null,"",""],[758,"CDISCPILOT01","FT","CDISC003",78,"AVL0210","AVL02-List A Word 10","AVLT-REY","FORM 1","RECALLED","RECALLED",null,"Y",5,2,"SCREENING 2","SCREENING","2013-08-27T12:20",-2,"",null,"",""],[759,"CDISCPILOT01","FT","CDISC003",79,"AVL0211","AVL02-List A Word 11","AVLT-REY","FORM 1","RECALLED","RECALLED",null,"Y",5,2,"SCREENING 2","SCREENING","2013-08-27T12:20",-2,"",null,"",""],[760,"CDISCPILOT01","FT","CDISC003",80,"AVL0212","AVL02-List A Word 12","AVLT-REY","FORM 1","RECALLED","RECALLED",null,"Y",5,2,"SCREENING 2","SCREENING","2013-08-27T12:20",-2,"",null,"",""],[761,"CDISCPILOT01","FT","CDISC003",81,"AVL0213","AVL02-List A Word 13","AVLT-REY","FORM 1","RECALLED","RECALLED",null,"Y",5,2,"SCREENING 2","SCREENING","2013-08-27T12:20",-2,"",null,"",""],[762,"CDISCPILOT01","FT","CDISC003",82,"AVL0214","AVL02-List A Word 14","AVLT-REY","FORM 1","NOT RECALLED","NOT RECALLED",null,"Y",5,2,"SCREENING 2","SCREENING","2013-08-27T12:20",-2,"",null,"",""],[763,"CDISCPILOT01","FT","CDISC003",83,"AVL0215","AVL02-List A Word 15","AVLT-REY","FORM 1","NOT RECALLED","NOT RECALLED",null,"Y",5,2,"SCREENING 2","SCREENING","2013-08-27T12:20",-2,"",null,"",""],[764,"CDISCPILOT01","FT","CDISC003",84,"AVL0216","AVL02-List A Total","AVLT-REY","FORM 1","13","13",13,"Y",5,2,"SCREENING 2","SCREENING","2013-08-27T12:20",-2,"",null,"",""],[765,"CDISCPILOT01","FT","CDISC003",85,"AVL0217","AVL02-List A Intrusions","AVLT-REY","FORM 1","1","1",1,"Y",5,2,"SCREENING 2","SCREENING","2013-08-27T12:20",-2,"",null,"",""],[766,"CDISCPILOT01","FT","CDISC003",86,"AVL0218","AVL02-List B Word 1","AVLT-REY","FORM 1","RECALLED","RECALLED",null,"Y",null,2,"SCREENING 2","SCREENING","2013-08-27T12:25",-2,"",null,"",""],[767,"CDISCPILOT01","FT","CDISC003",87,"AVL0219","AVL02-List B Word 2","AVLT-REY","FORM 1","RECALLED","RECALLED",null,"Y",null,2,"SCREENING 2","SCREENING","2013-08-27T12:25",-2,"",null,"",""],[768,"CDISCPILOT01","FT","CDISC003",88,"AVL0220","AVL02-List B Word 3","AVLT-REY","FORM 1","RECALLED","RECALLED",null,"Y",null,2,"SCREENING 2","SCREENING","2013-08-27T12:25",-2,"",null,"",""],[769,"CDISCPILOT01","FT","CDISC003",89,"AVL0221","AVL02-List B Word 4","AVLT-REY","FORM 1","RECALLED","RECALLED",null,"Y",null,2,"SCREENING 2","SCREENING","2013-08-27T12:25",-2,"",null,"",""],[770,"CDISCPILOT01","FT","CDISC003",90,"AVL0222","AVL02-List B Word 5","AVLT-REY","FORM 1","RECALLED","RECALLED",null,"Y",null,2,"SCREENING 2","SCREENING","2013-08-27T12:25",-2,"",null,"",""],[771,"CDISCPILOT01","FT","CDISC003",91,"AVL0223","AVL02-List B Word 6","AVLT-REY","FORM 1","RECALLED","RECALLED",null,"Y",null,2,"SCREENING 2","SCREENING","2013-08-27T12:25",-2,"",null,"",""],[772,"CDISCPILOT01","FT","CDISC003",92,"AVL0224","AVL02-List B Word 7","AVLT-REY","FORM 1","RECALLED","RECALLED",null,"Y",null,2,"SCREENING 2","SCREENING","2013-08-27T12:25",-2,"",null,"",""],[773,"CDISCPILOT01","FT","CDISC003",93,"AVL0225","AVL02-List B Word 8","AVLT-REY","FORM 1","RECALLED","RECALLED",null,"Y",null,2,"SCREENING 2","SCREENING","2013-08-27T12:25",-2,"",null,"",""],[774,"CDISCPILOT01","FT","CDISC003",94,"AVL0226","AVL02-List B Word 9","AVLT-REY","FORM 1","RECALLED","RECALLED",null,"Y",null,2,"SCREENING 2","SCREENING","2013-08-27T12:25",-2,"",null,"",""],[775,"CDISCPILOT01","FT","CDISC003",95,"AVL0227","AVL02-List B Word 10","AVLT-REY","FORM 1","RECALLED","RECALLED",null,"Y",null,2,"SCREENING 2","SCREENING","2013-08-27T12:25",-2,"",null,"",""],[776,"CDISCPILOT01","FT","CDISC003",96,"AVL0228","AVL02-List B Word 11","AVLT-REY","FORM 1","NOT RECALLED","NOT RECALLED",null,"Y",null,2,"SCREENING 2","SCREENING","2013-08-27T12:25",-2,"",null,"",""],[777,"CDISCPILOT01","FT","CDISC003",97,"AVL0229","AVL02-List B Word 12","AVLT-REY","FORM 1","NOT RECALLED","NOT RECALLED",null,"Y",null,2,"SCREENING 2","SCREENING","2013-08-27T12:25",-2,"",null,"",""],[778,"CDISCPILOT01","FT","CDISC003",98,"AVL0230","AVL02-List B Word 13","AVLT-REY","FORM 1","NOT RECALLED","NOT RECALLED",null,"Y",null,2,"SCREENING 2","SCREENING","2013-08-27T12:25",-2,"",null,"",""],[779,"CDISCPILOT01","FT","CDISC003",99,"AVL0231","AVL02-List B Word 14","AVLT-REY","FORM 1","NOT RECALLED","NOT RECALLED",null,"Y",null,2,"SCREENING 2","SCREENING","2013-08-27T12:25",-2,"",null,"",""],[780,"CDISCPILOT01","FT","CDISC003",100,"AVL0232","AVL02-List B Word 15","AVLT-REY","FORM 1","NOT RECALLED","NOT RECALLED",null,"Y",null,2,"SCREENING 2","SCREENING","2013-08-27T12:25",-2,"",null,"",""],[781,"CDISCPILOT01","FT","CDISC003",101,"AVL0233","AVL02- List B Total","AVLT-REY","FORM 1","10","10",10,"Y",null,2,"SCREENING 2","SCREENING","2013-08-27T12:25",-2,"",null,"",""],[782,"CDISCPILOT01","FT","CDISC003",102,"AVL0234","AVL02-List B Intrusions","AVLT-REY","FORM 1","1","1",1,"Y",null,2,"SCREENING 2","SCREENING","2013-08-27T12:25",-2,"",null,"",""],[783,"CDISCPILOT01","FT","CDISC003",103,"AVL0201","AVL02-List A Word 1","AVLT-REY","FORM 1","RECALLED","RECALLED",null,"Y",6,2,"SCREENING 2","SCREENING","2013-08-27T12:30",-2,"",null,"",""],[784,"CDISCPILOT01","FT","CDISC003",104,"AVL0202","AVL02-List A Word 2","AVLT-REY","FORM 1","RECALLED","RECALLED",null,"Y",6,2,"SCREENING 2","SCREENING","2013-08-27T12:30",-2,"",null,"",""],[785,"CDISCPILOT01","FT","CDISC003",105,"AVL0203","AVL02-List A Word 3","AVLT-REY","FORM 1","RECALLED","RECALLED",null,"Y",6,2,"SCREENING 2","SCREENING","2013-08-27T12:30",-2,"",null,"",""],[786,"CDISCPILOT01","FT","CDISC003",106,"AVL0204","AVL02-List A Word 4","AVLT-REY","FORM 1","RECALLED","RECALLED",null,"Y",6,2,"SCREENING 2","SCREENING","2013-08-27T12:30",-2,"",null,"",""],[787,"CDISCPILOT01","FT","CDISC003",107,"AVL0205","AVL02-List A Word 5","AVLT-REY","FORM 1","RECALLED","RECALLED",null,"Y",6,2,"SCREENING 2","SCREENING","2013-08-27T12:30",-2,"",null,"",""],[788,"CDISCPILOT01","FT","CDISC003",108,"AVL0206","AVL02-List A Word 6","AVLT-REY","FORM 1","RECALLED","RECALLED",null,"Y",6,2,"SCREENING 2","SCREENING","2013-08-27T12:30",-2,"",null,"",""],[789,"CDISCPILOT01","FT","CDISC003",109,"AVL0207","AVL02-List A Word 7","AVLT-REY","FORM 1","RECALLED","RECALLED",null,"Y",6,2,"SCREENING 2","SCREENING","2013-08-27T12:30",-2,"",null,"",""],[790,"CDISCPILOT01","FT","CDISC003",110,"AVL0208","AVL02-List A Word 8","AVLT-REY","FORM 1","RECALLED","RECALLED",null,"Y",6,2,"SCREENING 2","SCREENING","2013-08-27T12:30",-2,"",null,"",""],[791,"CDISCPILOT01","FT","CDISC003",111,"AVL0209","AVL02-List A Word 9","AVLT-REY","FORM 1","RECALLED","RECALLED",null,"Y",6,2,"SCREENING 2","SCREENING","2013-08-27T12:30",-2,"",null,"",""],[792,"CDISCPILOT01","FT","CDISC003",112,"AVL0210","AVL02-List A Word 10","AVLT-REY","FORM 1","RECALLED","RECALLED",null,"Y",6,2,"SCREENING 2","SCREENING","2013-08-27T12:30",-2,"",null,"",""],[793,"CDISCPILOT01","FT","CDISC003",113,"AVL0211","AVL02-List A Word 11","AVLT-REY","FORM 1","RECALLED","RECALLED",null,"Y",6,2,"SCREENING 2","SCREENING","2013-08-27T12:30",-2,"",null,"",""],[794,"CDISCPILOT01","FT","CDISC003",114,"AVL0212","AVL02-List A Word 12","AVLT-REY","FORM 1","RECALLED","RECALLED",null,"Y",6,2,"SCREENING 2","SCREENING","2013-08-27T12:30",-2,"",null,"",""],[795,"CDISCPILOT01","FT","CDISC003",115,"AVL0213","AVL02-List A Word 13","AVLT-REY","FORM 1","RECALLED","RECALLED",null,"Y",6,2,"SCREENING 2","SCREENING","2013-08-27T12:30",-2,"",null,"",""],[796,"CDISCPILOT01","FT","CDISC003",116,"AVL0214","AVL02-List A Word 14","AVLT-REY","FORM 1","NOT RECALLED","NOT RECALLED",null,"Y",6,2,"SCREENING 2","SCREENING","2013-08-27T12:30",-2,"",null,"",""],[797,"CDISCPILOT01","FT","CDISC003",117,"AVL0215","AVL02-List A Word 15","AVLT-REY","FORM 1","NOT RECALLED","NOT RECALLED",null,"Y",6,2,"SCREENING 2","SCREENING","2013-08-27T12:30",-2,"",null,"",""],[798,"CDISCPILOT01","FT","CDISC003",118,"AVL0216","AVL02-List A Total","AVLT-REY","FORM 1","13","13",13,"Y",6,2,"SCREENING 2","SCREENING","2013-08-27T12:30",-2,"",null,"",""],[799,"CDISCPILOT01","FT","CDISC003",119,"AVL0217","AVL02-List A Intrusions","AVLT-REY","FORM 1","2","2",2,"Y",6,2,"SCREENING 2","SCREENING","2013-08-27T12:30",-2,"",null,"",""],[800,"CDISCPILOT01","FT","CDISC003",120,"AVL0201","AVL02-List A Word 1","AVLT-REY","FORM 1","RECALLED","RECALLED",null,"Y",7,2,"SCREENING 2","SCREENING","2013-08-27T13:00",-2,"30 MIN POST",1,"PT30M","LIST A RECALL 6"],[801,"CDISCPILOT01","FT","CDISC003",121,"AVL0202","AVL02-List A Word 2","AVLT-REY","FORM 1","RECALLED","RECALLED",null,"Y",7,2,"SCREENING 2","SCREENING","2013-08-27T13:00",-2,"30 MIN POST",1,"PT30M","LIST A RECALL 6"],[802,"CDISCPILOT01","FT","CDISC003",122,"AVL0203","AVL02-List A Word 3","AVLT-REY","FORM 1","RECALLED","RECALLED",null,"Y",7,2,"SCREENING 2","SCREENING","2013-08-27T13:00",-2,"30 MIN POST",1,"PT30M","LIST A RECALL 6"],[803,"CDISCPILOT01","FT","CDISC003",123,"AVL0204","AVL02-List A Word 4","AVLT-REY","FORM 1","RECALLED","RECALLED",null,"Y",7,2,"SCREENING 2","SCREENING","2013-08-27T13:00",-2,"30 MIN POST",1,"PT30M","LIST A RECALL 6"],[804,"CDISCPILOT01","FT","CDISC003",124,"AVL0205","AVL02-List A Word 5","AVLT-REY","FORM 1","RECALLED","RECALLED",null,"Y",7,2,"SCREENING 2","SCREENING","2013-08-27T13:00",-2,"30 MIN POST",1,"PT30M","LIST A RECALL 6"],[805,"CDISCPILOT01","FT","CDISC003",125,"AVL0206","AVL02-List A Word 6","AVLT-REY","FORM 1","RECALLED","RECALLED",null,"Y",7,2,"SCREENING 2","SCREENING","2013-08-27T13:00",-2,"30 MIN POST",1,"PT30M","LIST A RECALL 6"],[806,"CDISCPILOT01","FT","CDISC003",126,"AVL0207","AVL02-List A Word 7","AVLT-REY","FORM 1","NOT RECALLED","NOT RECALLED",null,"Y",7,2,"SCREENING 2","SCREENING","2013-08-27T13:00",-2,"30 MIN POST",1,"PT30M","LIST A RECALL 6"],[807,"CDISCPILOT01","FT","CDISC003",127,"AVL0208","AVL02-List A Word 8","AVLT-REY","FORM 1","NOT RECALLED","NOT RECALLED",null,"Y",7,2,"SCREENING 2","SCREENING","2013-08-27T13:00",-2,"30 MIN POST",1,"PT30M","LIST A RECALL 6"],[808,"CDISCPILOT01","FT","CDISC003",128,"AVL0209","AVL02-List A Word 9","AVLT-REY","FORM 1","RECALLED","RECALLED",null,"Y",7,2,"SCREENING 2","SCREENING","2013-08-27T13:00",-2,"30 MIN POST",1,"PT30M","LIST A RECALL 6"],[809,"CDISCPILOT01","FT","CDISC003",129,"AVL0210","AVL02-List A Word 10","AVLT-REY","FORM 1","RECALLED","RECALLED",null,"Y",7,2,"SCREENING 2","SCREENING","2013-08-27T13:00",-2,"30 MIN POST",1,"PT30M","LIST A RECALL 6"],[810,"CDISCPILOT01","FT","CDISC003",130,"AVL0211","AVL02-List A Word 11","AVLT-REY","FORM 1","RECALLED","RECALLED",null,"Y",7,2,"SCREENING 2","SCREENING","2013-08-27T13:00",-2,"30 MIN POST",1,"PT30M","LIST A RECALL 6"],[811,"CDISCPILOT01","FT","CDISC003",131,"AVL0212","AVL02-List A Word 12","AVLT-REY","FORM 1","RECALLED","RECALLED",null,"Y",7,2,"SCREENING 2","SCREENING","2013-08-27T13:00",-2,"30 MIN POST",1,"PT30M","LIST A RECALL 6"],[812,"CDISCPILOT01","FT","CDISC003",132,"AVL0213","AVL02-List A Word 13","AVLT-REY","FORM 1","RECALLED","RECALLED",null,"Y",7,2,"SCREENING 2","SCREENING","2013-08-27T13:00",-2,"30 MIN POST",1,"PT30M","LIST A RECALL 6"],[813,"CDISCPILOT01","FT","CDISC003",133,"AVL0214","AVL02-List A Word 14","AVLT-REY","FORM 1","NOT RECALLED","NOT RECALLED",null,"Y",7,2,"SCREENING 2","SCREENING","2013-08-27T13:00",-2,"30 MIN POST",1,"PT30M","LIST A RECALL 6"],[814,"CDISCPILOT01","FT","CDISC003",134,"AVL0215","AVL02-List A Word 15","AVLT-REY","FORM 1","NOT RECALLED","NOT RECALLED",null,"Y",7,2,"SCREENING 2","SCREENING","2013-08-27T13:00",-2,"30 MIN POST",1,"PT30M","LIST A RECALL 6"],[815,"CDISCPILOT01","FT","CDISC003",135,"AVL0216","AVL02-List A Total","AVLT-REY","FORM 1","11","11",11,"Y",7,2,"SCREENING 2","SCREENING","2013-08-27T13:00",-2,"30 MIN POST",1,"PT30M","LIST A RECALL 6"],[816,"CDISCPILOT01","FT","CDISC003",136,"AVL0217","AVL02-List A Intrusions","AVLT-REY","FORM 1","1","1",1,"Y",7,2,"SCREENING 2","SCREENING","2013-08-27T13:00",-2,"30 MIN POST",1,"PT30M","LIST A RECALL 6"],[817,"CDISCPILOT01","FT","CDISC003",137,"AVL0201","AVL02-List A Word 1","AVLT-REY","FORM 1","RECALLED","RECALLED",null,"",1,8,"WEEK 8","TREATMENT","2013-10-22T12:00",55,"",null,"",""],[818,"CDISCPILOT01","FT","CDISC003",138,"AVL0202","AVL02-List A Word 2","AVLT-REY","FORM 1","RECALLED","RECALLED",null,"",1,8,"WEEK 8","TREATMENT","2013-10-22T12:00",55,"",null,"",""],[819,"CDISCPILOT01","FT","CDISC003",139,"AVL0203","AVL02-List A Word 3","AVLT-REY","FORM 1","RECALLED","RECALLED",null,"",1,8,"WEEK 8","TREATMENT","2013-10-22T12:00",55,"",null,"",""],[820,"CDISCPILOT01","FT","CDISC003",140,"AVL0204","AVL02-List A Word 4","AVLT-REY","FORM 1","RECALLED","RECALLED",null,"",1,8,"WEEK 8","TREATMENT","2013-10-22T12:00",55,"",null,"",""],[821,"CDISCPILOT01","FT","CDISC003",141,"AVL0205","AVL02-List A Word 5","AVLT-REY","FORM 1","RECALLED","RECALLED",null,"",1,8,"WEEK 8","TREATMENT","2013-10-22T12:00",55,"",null,"",""],[822,"CDISCPILOT01","FT","CDISC003",142,"AVL0206","AVL02-List A Word 6","AVLT-REY","FORM 1","RECALLED","RECALLED",null,"",1,8,"WEEK 8","TREATMENT","2013-10-22T12:00",55,"",null,"",""],[823,"CDISCPILOT01","FT","CDISC003",143,"AVL0207","AVL02-List A Word 7","AVLT-REY","FORM 1","RECALLED","RECALLED",null,"",1,8,"WEEK 8","TREATMENT","2013-10-22T12:00",55,"",null,"",""],[824,"CDISCPILOT01","FT","CDISC003",144,"AVL0208","AVL02-List A Word 8","AVLT-REY","FORM 1","RECALLED","RECALLED",null,"",1,8,"WEEK 8","TREATMENT","2013-10-22T12:00",55,"",null,"",""],[825,"CDISCPILOT01","FT","CDISC003",145,"AVL0209","AVL02-List A Word 9","AVLT-REY","FORM 1","RECALLED","RECALLED",null,"",1,8,"WEEK 8","TREATMENT","2013-10-22T12:00",55,"",null,"",""],[826,"CDISCPILOT01","FT","CDISC003",146,"AVL0210","AVL02-List A Word 10","AVLT-REY","FORM 1","RECALLED","RECALLED",null,"",1,8,"WEEK 8","TREATMENT","2013-10-22T12:00",55,"",null,"",""],[827,"CDISCPILOT01","FT","CDISC003",147,"AVL0211","AVL02-List A Word 11","AVLT-REY","FORM 1","NOT RECALLED","NOT RECALLED",null,"",1,8,"WEEK 8","TREATMENT","2013-10-22T12:00",55,"",null,"",""],[828,"CDISCPILOT01","FT","CDISC003",148,"AVL0212","AVL02-List A Word 12","AVLT-REY","FORM 1","NOT RECALLED","NOT RECALLED",null,"",1,8,"WEEK 8","TREATMENT","2013-10-22T12:00",55,"",null,"",""],[829,"CDISCPILOT01","FT","CDISC003",149,"AVL0213","AVL02-List A Word 13","AVLT-REY","FORM 1","NOT RECALLED","NOT RECALLED",null,"",1,8,"WEEK 8","TREATMENT","2013-10-22T12:00",55,"",null,"",""],[830,"CDISCPILOT01","FT","CDISC003",150,"AVL0214","AVL02-List A Word 14","AVLT-REY","FORM 1","NOT RECALLED","NOT RECALLED",null,"",1,8,"WEEK 8","TREATMENT","2013-10-22T12:00",55,"",null,"",""],[831,"CDISCPILOT01","FT","CDISC003",151,"AVL0215","AVL02-List A Word 15","AVLT-REY","FORM 1","NOT RECALLED","NOT RECALLED",null,"",1,8,"WEEK 8","TREATMENT","2013-10-22T12:00",55,"",null,"",""],[832,"CDISCPILOT01","FT","CDISC003",152,"AVL0216","AVL02-List A Total","AVLT-REY","FORM 1","10","10",10,"",1,8,"WEEK 8","TREATMENT","2013-10-22T12:00",55,"",null,"",""],[833,"CDISCPILOT01","FT","CDISC003",153,"AVL0217","AVL02-List A Intrusions","AVLT-REY","FORM 1","2","2",2,"",1,8,"WEEK 8","TREATMENT","2013-10-22T12:00",55,"",null,"",""],[834,"CDISCPILOT01","FT","CDISC003",154,"AVL0201","AVL02-List A Word 1","AVLT-REY","FORM 1","RECALLED","RECALLED",null,"",2,8,"WEEK 8","TREATMENT","2013-10-22T12:05",55,"",null,"",""],[835,"CDISCPILOT01","FT","CDISC003",155,"AVL0202","AVL02-List A Word 2","AVLT-REY","FORM 1","RECALLED","RECALLED",null,"",2,8,"WEEK 8","TREATMENT","2013-10-22T12:05",55,"",null,"",""],[836,"CDISCPILOT01","FT","CDISC003",156,"AVL0203","AVL02-List A Word 3","AVLT-REY","FORM 1","RECALLED","RECALLED",null,"",2,8,"WEEK 8","TREATMENT","2013-10-22T12:05",55,"",null,"",""],[837,"CDISCPILOT01","FT","CDISC003",157,"AVL0204","AVL02-List A Word 4","AVLT-REY","FORM 1","RECALLED","RECALLED",null,"",2,8,"WEEK 8","TREATMENT","2013-10-22T12:05",55,"",null,"",""],[838,"CDISCPILOT01","FT","CDISC003",158,"AVL0205","AVL02-List A Word 5","AVLT-REY","FORM 1","RECALLED","RECALLED",null,"",2,8,"WEEK 8","TREATMENT","2013-10-22T12:05",55,"",null,"",""],[839,"CDISCPILOT01","FT","CDISC003",159,"AVL0206","AVL02-List A Word 6","AVLT-REY","FORM 1","RECALLED","RECALLED",null,"",2,8,"WEEK 8","TREATMENT","2013-10-22T12:05",55,"",null,"",""],[840,"CDISCPILOT01","FT","CDISC003",160,"AVL0207","AVL02-List A Word 7","AVLT-REY","FORM 1","RECALLED","RECALLED",null,"",2,8,"WEEK 8","TREATMENT","2013-10-22T12:05",55,"",null,"",""],[841,"CDISCPILOT01","FT","CDISC003",161,"AVL0208","AVL02-List A Word 8","AVLT-REY","FORM 1","RECALLED","RECALLED",null,"",2,8,"WEEK 8","TREATMENT","2013-10-22T12:05",55,"",null,"",""],[842,"CDISCPILOT01","FT","CDISC003",162,"AVL0209","AVL02-List A Word 9","AVLT-REY","FORM 1","RECALLED","RECALLED",null,"",2,8,"WEEK 8","TREATMENT","2013-10-22T12:05",55,"",null,"",""],[843,"CDISCPILOT01","FT","CDISC003",163,"AVL0210","AVL02-List A Word 10","AVLT-REY","FORM 1","RECALLED","RECALLED",null,"",2,8,"WEEK 8","TREATMENT","2013-10-22T12:05",55,"",null,"",""],[844,"CDISCPILOT01","FT","CDISC003",164,"AVL0211","AVL02-List A Word 11","AVLT-REY","FORM 1","RECALLED","RECALLED",null,"",2,8,"WEEK 8","TREATMENT","2013-10-22T12:05",55,"",null,"",""],[845,"CDISCPILOT01","FT","CDISC003",165,"AVL0212","AVL02-List A Word 12","AVLT-REY","FORM 1","NOT RECALLED","NOT RECALLED",null,"",2,8,"WEEK 8","TREATMENT","2013-10-22T12:05",55,"",null,"",""],[846,"CDISCPILOT01","FT","CDISC003",166,"AVL0213","AVL02-List A Word 13","AVLT-REY","FORM 1","NOT RECALLED","NOT RECALLED",null,"",2,8,"WEEK 8","TREATMENT","2013-10-22T12:05",55,"",null,"",""],[847,"CDISCPILOT01","FT","CDISC003",167,"AVL0214","AVL02-List A Word 14","AVLT-REY","FORM 1","NOT RECALLED","NOT RECALLED",null,"",2,8,"WEEK 8","TREATMENT","2013-10-22T12:05",55,"",null,"",""],[848,"CDISCPILOT01","FT","CDISC003",168,"AVL0215","AVL02-List A Word 15","AVLT-REY","FORM 1","NOT RECALLED","NOT RECALLED",null,"",2,8,"WEEK 8","TREATMENT","2013-10-22T12:05",55,"",null,"",""],[849,"CDISCPILOT01","FT","CDISC003",169,"AVL0216","AVL02-List A Total","AVLT-REY","FORM 1","11","11",11,"",2,8,"WEEK 8","TREATMENT","2013-10-22T12:05",55,"",null,"",""],[850,"CDISCPILOT01","FT","CDISC003",170,"AVL0217","AVL02-List A Intrusions","AVLT-REY","FORM 1","1","1",1,"",2,8,"WEEK 8","TREATMENT","2013-10-22T12:05",55,"",null,"",""],[851,"CDISCPILOT01","FT","CDISC003",171,"AVL0201","AVL02-List A Word 1","AVLT-REY","FORM 1","RECALLED","RECALLED",null,"",3,8,"WEEK 8","TREATMENT","2013-10-22T12:10",55,"",null,"",""],[852,"CDISCPILOT01","FT","CDISC003",172,"AVL0202","AVL02-List A Word 2","AVLT-REY","FORM 1","RECALLED","RECALLED",null,"",3,8,"WEEK 8","TREATMENT","2013-10-22T12:10",55,"",null,"",""],[853,"CDISCPILOT01","FT","CDISC003",173,"AVL0203","AVL02-List A Word 3","AVLT-REY","FORM 1","RECALLED","RECALLED",null,"",3,8,"WEEK 8","TREATMENT","2013-10-22T12:10",55,"",null,"",""],[854,"CDISCPILOT01","FT","CDISC003",174,"AVL0204","AVL02-List A Word 4","AVLT-REY","FORM 1","RECALLED","RECALLED",null,"",3,8,"WEEK 8","TREATMENT","2013-10-22T12:10",55,"",null,"",""],[855,"CDISCPILOT01","FT","CDISC003",175,"AVL0205","AVL02-List A Word 5","AVLT-REY","FORM 1","RECALLED","RECALLED",null,"",3,8,"WEEK 8","TREATMENT","2013-10-22T12:10",55,"",null,"",""],[856,"CDISCPILOT01","FT","CDISC003",176,"AVL0206","AVL02-List A Word 6","AVLT-REY","FORM 1","RECALLED","RECALLED",null,"",3,8,"WEEK 8","TREATMENT","2013-10-22T12:10",55,"",null,"",""],[857,"CDISCPILOT01","FT","CDISC003",177,"AVL0207","AVL02-List A Word 7","AVLT-REY","FORM 1","RECALLED","RECALLED",null,"",3,8,"WEEK 8","TREATMENT","2013-10-22T12:10",55,"",null,"",""],[858,"CDISCPILOT01","FT","CDISC003",178,"AVL0208","AVL02-List A Word 8","AVLT-REY","FORM 1","RECALLED","RECALLED",null,"",3,8,"WEEK 8","TREATMENT","2013-10-22T12:10",55,"",null,"",""],[859,"CDISCPILOT01","FT","CDISC003",179,"AVL0209","AVL02-List A Word 9","AVLT-REY","FORM 1","NOT RECALLED","NOT RECALLED",null,"",3,8,"WEEK 8","TREATMENT","2013-10-22T12:10",55,"",null,"",""],[860,"CDISCPILOT01","FT","CDISC003",180,"AVL0210","AVL02-List A Word 10","AVLT-REY","FORM 1","RECALLED","RECALLED",null,"",3,8,"WEEK 8","TREATMENT","2013-10-22T12:10",55,"",null,"",""],[861,"CDISCPILOT01","FT","CDISC003",181,"AVL0211","AVL02-List A Word 11","AVLT-REY","FORM 1","RECALLED","RECALLED",null,"",3,8,"WEEK 8","TREATMENT","2013-10-22T12:10",55,"",null,"",""],[862,"CDISCPILOT01","FT","CDISC003",182,"AVL0212","AVL02-List A Word 12","AVLT-REY","FORM 1","RECALLED","RECALLED",null,"",3,8,"WEEK 8","TREATMENT","2013-10-22T12:10",55,"",null,"",""],[863,"CDISCPILOT01","FT","CDISC003",183,"AVL0213","AVL02-List A Word 13","AVLT-REY","FORM 1","RECALLED","RECALLED",null,"",3,8,"WEEK 8","TREATMENT","2013-10-22T12:10",55,"",null,"",""],[864,"CDISCPILOT01","FT","CDISC003",184,"AVL0214","AVL02-List A Word 14","AVLT-REY","FORM 1","NOT RECALLED","NOT RECALLED",null,"",3,8,"WEEK 8","TREATMENT","2013-10-22T12:10",55,"",null,"",""],[865,"CDISCPILOT01","FT","CDISC003",185,"AVL0215","AVL02-List A Word 15","AVLT-REY","FORM 1","NOT RECALLED","NOT RECALLED",null,"",3,8,"WEEK 8","TREATMENT","2013-10-22T12:10",55,"",null,"",""],[866,"CDISCPILOT01","FT","CDISC003",186,"AVL0216","AVL02-List A Total","AVLT-REY","FORM 1","12","12",12,"",3,8,"WEEK 8","TREATMENT","2013-10-22T12:10",55,"",null,"",""],[867,"CDISCPILOT01","FT","CDISC003",187,"AVL0217","AVL02-List A Intrusions","AVLT-REY","FORM 1","0","0",0,"",3,8,"WEEK 8","TREATMENT","2013-10-22T12:10",55,"",null,"",""],[868,"CDISCPILOT01","FT","CDISC003",188,"AVL0201","AVL02-List A Word 1","AVLT-REY","FORM 1","RECALLED","RECALLED",null,"",4,8,"WEEK 8","TREATMENT","2013-10-22T12:15",55,"",null,"",""],[869,"CDISCPILOT01","FT","CDISC003",189,"AVL0202","AVL02-List A Word 2","AVLT-REY","FORM 1","RECALLED","RECALLED",null,"",4,8,"WEEK 8","TREATMENT","2013-10-22T12:15",55,"",null,"",""],[870,"CDISCPILOT01","FT","CDISC003",190,"AVL0203","AVL02-List A Word 3","AVLT-REY","FORM 1","RECALLED","RECALLED",null,"",4,8,"WEEK 8","TREATMENT","2013-10-22T12:15",55,"",null,"",""],[871,"CDISCPILOT01","FT","CDISC003",191,"AVL0204","AVL02-List A Word 4","AVLT-REY","FORM 1","RECALLED","RECALLED",null,"",4,8,"WEEK 8","TREATMENT","2013-10-22T12:15",55,"",null,"",""],[872,"CDISCPILOT01","FT","CDISC003",192,"AVL0205","AVL02-List A Word 5","AVLT-REY","FORM 1","RECALLED","RECALLED",null,"",4,8,"WEEK 8","TREATMENT","2013-10-22T12:15",55,"",null,"",""],[873,"CDISCPILOT01","FT","CDISC003",193,"AVL0206","AVL02-List A Word 6","AVLT-REY","FORM 1","RECALLED","RECALLED",null,"",4,8,"WEEK 8","TREATMENT","2013-10-22T12:15",55,"",null,"",""],[874,"CDISCPILOT01","FT","CDISC003",194,"AVL0207","AVL02-List A Word 7","AVLT-REY","FORM 1","RECALLED","RECALLED",null,"",4,8,"WEEK 8","TREATMENT","2013-10-22T12:15",55,"",null,"",""],[875,"CDISCPILOT01","FT","CDISC003",195,"AVL0208","AVL02-List A Word 8","AVLT-REY","FORM 1","RECALLED","RECALLED",null,"",4,8,"WEEK 8","TREATMENT","2013-10-22T12:15",55,"",null,"",""],[876,"CDISCPILOT01","FT","CDISC003",196,"AVL0209","AVL02-List A Word 9","AVLT-REY","FORM 1","RECALLED","RECALLED",null,"",4,8,"WEEK 8","TREATMENT","2013-10-22T12:15",55,"",null,"",""],[877,"CDISCPILOT01","FT","CDISC003",197,"AVL0210","AVL02-List A Word 10","AVLT-REY","FORM 1","RECALLED","RECALLED",null,"",4,8,"WEEK 8","TREATMENT","2013-10-22T12:15",55,"",null,"",""],[878,"CDISCPILOT01","FT","CDISC003",198,"AVL0211","AVL02-List A Word 11","AVLT-REY","FORM 1","RECALLED","RECALLED",null,"",4,8,"WEEK 8","TREATMENT","2013-10-22T12:15",55,"",null,"",""],[879,"CDISCPILOT01","FT","CDISC003",199,"AVL0212","AVL02-List A Word 12","AVLT-REY","FORM 1","RECALLED","RECALLED",null,"",4,8,"WEEK 8","TREATMENT","2013-10-22T12:15",55,"",null,"",""],[880,"CDISCPILOT01","FT","CDISC003",200,"AVL0213","AVL02-List A Word 13","AVLT-REY","FORM 1","RECALLED","RECALLED",null,"",4,8,"WEEK 8","TREATMENT","2013-10-22T12:15",55,"",null,"",""],[881,"CDISCPILOT01","FT","CDISC003",201,"AVL0214","AVL02-List A Word 14","AVLT-REY","FORM 1","NOT RECALLED","NOT RECALLED",null,"",4,8,"WEEK 8","TREATMENT","2013-10-22T12:15",55,"",null,"",""],[882,"CDISCPILOT01","FT","CDISC003",202,"AVL0215","AVL02-List A Word 15","AVLT-REY","FORM 1","NOT RECALLED","NOT RECALLED",null,"",4,8,"WEEK 8","TREATMENT","2013-10-22T12:15",55,"",null,"",""],[883,"CDISCPILOT01","FT","CDISC003",203,"AVL0216","AVL02-List A Total","AVLT-REY","FORM 1","13","13",13,"",4,8,"WEEK 8","TREATMENT","2013-10-22T12:15",55,"",null,"",""],[884,"CDISCPILOT01","FT","CDISC003",204,"AVL0217","AVL02-List A Intrusions","AVLT-REY","FORM 1","0","0",0,"",4,8,"WEEK 8","TREATMENT","2013-10-22T12:15",55,"",null,"",""],[885,"CDISCPILOT01","FT","CDISC003",205,"AVL0201","AVL02-List A Word 1","AVLT-REY","FORM 1","RECALLED","RECALLED",null,"",5,8,"WEEK 8","TREATMENT","2013-10-22T12:20",55,"",null,"",""],[886,"CDISCPILOT01","FT","CDISC003",206,"AVL0202","AVL02-List A Word 2","AVLT-REY","FORM 1","RECALLED","RECALLED",null,"",5,8,"WEEK 8","TREATMENT","2013-10-22T12:20",55,"",null,"",""],[887,"CDISCPILOT01","FT","CDISC003",207,"AVL0203","AVL02-List A Word 3","AVLT-REY","FORM 1","RECALLED","RECALLED",null,"",5,8,"WEEK 8","TREATMENT","2013-10-22T12:20",55,"",null,"",""],[888,"CDISCPILOT01","FT","CDISC003",208,"AVL0204","AVL02-List A Word 4","AVLT-REY","FORM 1","RECALLED","RECALLED",null,"",5,8,"WEEK 8","TREATMENT","2013-10-22T12:20",55,"",null,"",""],[889,"CDISCPILOT01","FT","CDISC003",209,"AVL0205","AVL02-List A Word 5","AVLT-REY","FORM 1","RECALLED","RECALLED",null,"",5,8,"WEEK 8","TREATMENT","2013-10-22T12:20",55,"",null,"",""],[890,"CDISCPILOT01","FT","CDISC003",210,"AVL0206","AVL02-List A Word 6","AVLT-REY","FORM 1","RECALLED","RECALLED",null,"",5,8,"WEEK 8","TREATMENT","2013-10-22T12:20",55,"",null,"",""],[891,"CDISCPILOT01","FT","CDISC003",211,"AVL0207","AVL02-List A Word 7","AVLT-REY","FORM 1","RECALLED","RECALLED",null,"",5,8,"WEEK 8","TREATMENT","2013-10-22T12:20",55,"",null,"",""],[892,"CDISCPILOT01","FT","CDISC003",212,"AVL0208","AVL02-List A Word 8","AVLT-REY","FORM 1","RECALLED","RECALLED",null,"",5,8,"WEEK 8","TREATMENT","2013-10-22T12:20",55,"",null,"",""],[893,"CDISCPILOT01","FT","CDISC003",213,"AVL0209","AVL02-List A Word 9","AVLT-REY","FORM 1","RECALLED","RECALLED",null,"",5,8,"WEEK 8","TREATMENT","2013-10-22T12:20",55,"",null,"",""],[894,"CDISCPILOT01","FT","CDISC003",214,"AVL0210","AVL02-List A Word 10","AVLT-REY","FORM 1","RECALLED","RECALLED",null,"",5,8,"WEEK 8","TREATMENT","2013-10-22T12:20",55,"",null,"",""],[895,"CDISCPILOT01","FT","CDISC003",215,"AVL0211","AVL02-List A Word 11","AVLT-REY","FORM 1","RECALLED","RECALLED",null,"",5,8,"WEEK 8","TREATMENT","2013-10-22T12:20",55,"",null,"",""],[896,"CDISCPILOT01","FT","CDISC003",216,"AVL0212","AVL02-List A Word 12","AVLT-REY","FORM 1","RECALLED","RECALLED",null,"",5,8,"WEEK 8","TREATMENT","2013-10-22T12:20",55,"",null,"",""],[897,"CDISCPILOT01","FT","CDISC003",217,"AVL0213","AVL02-List A Word 13","AVLT-REY","FORM 1","RECALLED","RECALLED",null,"",5,8,"WEEK 8","TREATMENT","2013-10-22T12:20",55,"",null,"",""],[898,"CDISCPILOT01","FT","CDISC003",218,"AVL0214","AVL02-List A Word 14","AVLT-REY","FORM 1","RECALLED","RECALLED",null,"",5,8,"WEEK 8","TREATMENT","2013-10-22T12:20",55,"",null,"",""],[899,"CDISCPILOT01","FT","CDISC003",219,"AVL0215","AVL02-List A Word 15","AVLT-REY","FORM 1","NOT RECALLED","NOT RECALLED",null,"",5,8,"WEEK 8","TREATMENT","2013-10-22T12:20",55,"",null,"",""],[900,"CDISCPILOT01","FT","CDISC003",220,"AVL0216","AVL02-List A Total","AVLT-REY","FORM 1","14","14",14,"",5,8,"WEEK 8","TREATMENT","2013-10-22T12:20",55,"",null,"",""],[901,"CDISCPILOT01","FT","CDISC003",221,"AVL0217","AVL02-List A Intrusions","AVLT-REY","FORM 1","0","0",0,"",5,8,"WEEK 8","TREATMENT","2013-10-22T12:20",55,"",null,"",""],[902,"CDISCPILOT01","FT","CDISC003",222,"AVL0218","AVL02-List B Word 1","AVLT-REY","FORM 1","RECALLED","RECALLED",null,"",null,8,"WEEK 8","TREATMENT","2013-10-22T12:25",55,"",null,"",""],[903,"CDISCPILOT01","FT","CDISC003",223,"AVL0219","AVL02-List B Word 2","AVLT-REY","FORM 1","RECALLED","RECALLED",null,"",null,8,"WEEK 8","TREATMENT","2013-10-22T12:25",55,"",null,"",""],[904,"CDISCPILOT01","FT","CDISC003",224,"AVL0220","AVL02-List B Word 3","AVLT-REY","FORM 1","RECALLED","RECALLED",null,"",null,8,"WEEK 8","TREATMENT","2013-10-22T12:25",55,"",null,"",""],[905,"CDISCPILOT01","FT","CDISC003",225,"AVL0221","AVL02-List B Word 4","AVLT-REY","FORM 1","RECALLED","RECALLED",null,"",null,8,"WEEK 8","TREATMENT","2013-10-22T12:25",55,"",null,"",""],[906,"CDISCPILOT01","FT","CDISC003",226,"AVL0222","AVL02-List B Word 5","AVLT-REY","FORM 1","RECALLED","RECALLED",null,"",null,8,"WEEK 8","TREATMENT","2013-10-22T12:25",55,"",null,"",""],[907,"CDISCPILOT01","FT","CDISC003",227,"AVL0223","AVL02-List B Word 6","AVLT-REY","FORM 1","RECALLED","RECALLED",null,"",null,8,"WEEK 8","TREATMENT","2013-10-22T12:25",55,"",null,"",""],[908,"CDISCPILOT01","FT","CDISC003",228,"AVL0224","AVL02-List B Word 7","AVLT-REY","FORM 1","RECALLED","RECALLED",null,"",null,8,"WEEK 8","TREATMENT","2013-10-22T12:25",55,"",null,"",""],[909,"CDISCPILOT01","FT","CDISC003",229,"AVL0225","AVL02-List B Word 8","AVLT-REY","FORM 1","RECALLED","RECALLED",null,"",null,8,"WEEK 8","TREATMENT","2013-10-22T12:25",55,"",null,"",""],[910,"CDISCPILOT01","FT","CDISC003",230,"AVL0226","AVL02-List B Word 9","AVLT-REY","FORM 1","RECALLED","RECALLED",null,"",null,8,"WEEK 8","TREATMENT","2013-10-22T12:25",55,"",null,"",""],[911,"CDISCPILOT01","FT","CDISC003",231,"AVL0227","AVL02-List B Word 10","AVLT-REY","FORM 1","NOT RECALLED","NOT RECALLED",null,"",null,8,"WEEK 8","TREATMENT","2013-10-22T12:25",55,"",null,"",""],[912,"CDISCPILOT01","FT","CDISC003",232,"AVL0228","AVL02-List B Word 11","AVLT-REY","FORM 1","NOT RECALLED","NOT RECALLED",null,"",null,8,"WEEK 8","TREATMENT","2013-10-22T12:25",55,"",null,"",""],[913,"CDISCPILOT01","FT","CDISC003",233,"AVL0229","AVL02-List B Word 12","AVLT-REY","FORM 1","NOT RECALLED","NOT RECALLED",null,"",null,8,"WEEK 8","TREATMENT","2013-10-22T12:25",55,"",null,"",""],[914,"CDISCPILOT01","FT","CDISC003",234,"AVL0230","AVL02-List B Word 13","AVLT-REY","FORM 1","RECALLED","RECALLED",null,"",null,8,"WEEK 8","TREATMENT","2013-10-22T12:25",55,"",null,"",""],[915,"CDISCPILOT01","FT","CDISC003",235,"AVL0231","AVL02-List B Word 14","AVLT-REY","FORM 1","NOT RECALLED","NOT RECALLED",null,"",null,8,"WEEK 8","TREATMENT","2013-10-22T12:25",55,"",null,"",""],[916,"CDISCPILOT01","FT","CDISC003",236,"AVL0232","AVL02-List B Word 15","AVLT-REY","FORM 1","NOT RECALLED","NOT RECALLED",null,"",null,8,"WEEK 8","TREATMENT","2013-10-22T12:25",55,"",null,"",""],[917,"CDISCPILOT01","FT","CDISC003",237,"AVL0233","AVL02- List B Total","AVLT-REY","FORM 1","10","10",10,"",null,8,"WEEK 8","TREATMENT","2013-10-22T12:25",55,"",null,"",""],[918,"CDISCPILOT01","FT","CDISC003",238,"AVL0234","AVL02-List B Intrusions","AVLT-REY","FORM 1","1","1",1,"",null,8,"WEEK 8","TREATMENT","2013-10-22T12:25",55,"",null,"",""],[919,"CDISCPILOT01","FT","CDISC003",239,"AVL0201","AVL02-List A Word 1","AVLT-REY","FORM 1","RECALLED","RECALLED",null,"",6,8,"WEEK 8","TREATMENT","2013-10-22T12:30",55,"",null,"",""],[920,"CDISCPILOT01","FT","CDISC003",240,"AVL0202","AVL02-List A Word 2","AVLT-REY","FORM 1","RECALLED","RECALLED",null,"",6,8,"WEEK 8","TREATMENT","2013-10-22T12:30",55,"",null,"",""],[921,"CDISCPILOT01","FT","CDISC003",241,"AVL0203","AVL02-List A Word 3","AVLT-REY","FORM 1","RECALLED","RECALLED",null,"",6,8,"WEEK 8","TREATMENT","2013-10-22T12:30",55,"",null,"",""],[922,"CDISCPILOT01","FT","CDISC003",242,"AVL0204","AVL02-List A Word 4","AVLT-REY","FORM 1","RECALLED","RECALLED",null,"",6,8,"WEEK 8","TREATMENT","2013-10-22T12:30",55,"",null,"",""],[923,"CDISCPILOT01","FT","CDISC003",243,"AVL0205","AVL02-List A Word 5","AVLT-REY","FORM 1","RECALLED","RECALLED",null,"",6,8,"WEEK 8","TREATMENT","2013-10-22T12:30",55,"",null,"",""],[924,"CDISCPILOT01","FT","CDISC003",244,"AVL0206","AVL02-List A Word 6","AVLT-REY","FORM 1","RECALLED","RECALLED",null,"",6,8,"WEEK 8","TREATMENT","2013-10-22T12:30",55,"",null,"",""],[925,"CDISCPILOT01","FT","CDISC003",245,"AVL0207","AVL02-List A Word 7","AVLT-REY","FORM 1","RECALLED","RECALLED",null,"",6,8,"WEEK 8","TREATMENT","2013-10-22T12:30",55,"",null,"",""],[926,"CDISCPILOT01","FT","CDISC003",246,"AVL0208","AVL02-List A Word 8","AVLT-REY","FORM 1","RECALLED","RECALLED",null,"",6,8,"WEEK 8","TREATMENT","2013-10-22T12:30",55,"",null,"",""],[927,"CDISCPILOT01","FT","CDISC003",247,"AVL0209","AVL02-List A Word 9","AVLT-REY","FORM 1","RECALLED","RECALLED",null,"",6,8,"WEEK 8","TREATMENT","2013-10-22T12:30",55,"",null,"",""],[928,"CDISCPILOT01","FT","CDISC003",248,"AVL0210","AVL02-List A Word 10","AVLT-REY","FORM 1","RECALLED","RECALLED",null,"",6,8,"WEEK 8","TREATMENT","2013-10-22T12:30",55,"",null,"",""],[929,"CDISCPILOT01","FT","CDISC003",249,"AVL0211","AVL02-List A Word 11","AVLT-REY","FORM 1","RECALLED","RECALLED",null,"",6,8,"WEEK 8","TREATMENT","2013-10-22T12:30",55,"",null,"",""],[930,"CDISCPILOT01","FT","CDISC003",250,"AVL0212","AVL02-List A Word 12","AVLT-REY","FORM 1","RECALLED","RECALLED",null,"",6,8,"WEEK 8","TREATMENT","2013-10-22T12:30",55,"",null,"",""],[931,"CDISCPILOT01","FT","CDISC003",251,"AVL0213","AVL02-List A Word 13","AVLT-REY","FORM 1","RECALLED","RECALLED",null,"",6,8,"WEEK 8","TREATMENT","2013-10-22T12:30",55,"",null,"",""],[932,"CDISCPILOT01","FT","CDISC003",252,"AVL0214","AVL02-List A Word 14","AVLT-REY","FORM 1","NOT RECALLED","NOT RECALLED",null,"",6,8,"WEEK 8","TREATMENT","2013-10-22T12:30",55,"",null,"",""],[933,"CDISCPILOT01","FT","CDISC003",253,"AVL0215","AVL02-List A Word 15","AVLT-REY","FORM 1","NOT RECALLED","NOT RECALLED",null,"",6,8,"WEEK 8","TREATMENT","2013-10-22T12:30",55,"",null,"",""],[934,"CDISCPILOT01","FT","CDISC003",254,"AVL0216","AVL02-List A Total","AVLT-REY","FORM 1","13","13",13,"",6,8,"WEEK 8","TREATMENT","2013-10-22T12:30",55,"",null,"",""],[935,"CDISCPILOT01","FT","CDISC003",255,"AVL0217","AVL02-List A Intrusions","AVLT-REY","FORM 1","0","0",0,"",6,8,"WEEK 8","TREATMENT","2013-10-22T12:30",55,"",null,"",""],[936,"CDISCPILOT01","FT","CDISC003",256,"AVL0201","AVL02-List A Word 1","AVLT-REY","FORM 1","RECALLED","RECALLED",null,"",7,8,"WEEK 8","TREATMENT","2013-10-22T13:00",55,"30 MIN POST",1,"PT30M","LIST A RECALL 6"],[937,"CDISCPILOT01","FT","CDISC003",257,"AVL0202","AVL02-List A Word 2","AVLT-REY","FORM 1","RECALLED","RECALLED",null,"",7,8,"WEEK 8","TREATMENT","2013-10-22T13:00",55,"30 MIN POST",1,"PT30M","LIST A RECALL 6"],[938,"CDISCPILOT01","FT","CDISC003",258,"AVL0203","AVL02-List A Word 3","AVLT-REY","FORM 1","RECALLED","RECALLED",null,"",7,8,"WEEK 8","TREATMENT","2013-10-22T13:00",55,"30 MIN POST",1,"PT30M","LIST A RECALL 6"],[939,"CDISCPILOT01","FT","CDISC003",259,"AVL0204","AVL02-List A Word 4","AVLT-REY","FORM 1","RECALLED","RECALLED",null,"",7,8,"WEEK 8","TREATMENT","2013-10-22T13:00",55,"30 MIN POST",1,"PT30M","LIST A RECALL 6"],[940,"CDISCPILOT01","FT","CDISC003",260,"AVL0205","AVL02-List A Word 5","AVLT-REY","FORM 1","RECALLED","RECALLED",null,"",7,8,"WEEK 8","TREATMENT","2013-10-22T13:00",55,"30 MIN POST",1,"PT30M","LIST A RECALL 6"],[941,"CDISCPILOT01","FT","CDISC003",261,"AVL0206","AVL02-List A Word 6","AVLT-REY","FORM 1","RECALLED","RECALLED",null,"",7,8,"WEEK 8","TREATMENT","2013-10-22T13:00",55,"30 MIN POST",1,"PT30M","LIST A RECALL 6"],[942,"CDISCPILOT01","FT","CDISC003",262,"AVL0207","AVL02-List A Word 7","AVLT-REY","FORM 1","RECALLED","RECALLED",null,"",7,8,"WEEK 8","TREATMENT","2013-10-22T13:00",55,"30 MIN POST",1,"PT30M","LIST A RECALL 6"],[943,"CDISCPILOT01","FT","CDISC003",263,"AVL0208","AVL02-List A Word 8","AVLT-REY","FORM 1","RECALLED","RECALLED",null,"",7,8,"WEEK 8","TREATMENT","2013-10-22T13:00",55,"30 MIN POST",1,"PT30M","LIST A RECALL 6"],[944,"CDISCPILOT01","FT","CDISC003",264,"AVL0209","AVL02-List A Word 9","AVLT-REY","FORM 1","RECALLED","RECALLED",null,"",7,8,"WEEK 8","TREATMENT","2013-10-22T13:00",55,"30 MIN POST",1,"PT30M","LIST A RECALL 6"],[945,"CDISCPILOT01","FT","CDISC003",265,"AVL0210","AVL02-List A Word 10","AVLT-REY","FORM 1","RECALLED","RECALLED",null,"",7,8,"WEEK 8","TREATMENT","2013-10-22T13:00",55,"30 MIN POST",1,"PT30M","LIST A RECALL 6"],[946,"CDISCPILOT01","FT","CDISC003",266,"AVL0211","AVL02-List A Word 11","AVLT-REY","FORM 1","RECALLED","RECALLED",null,"",7,8,"WEEK 8","TREATMENT","2013-10-22T13:00",55,"30 MIN POST",1,"PT30M","LIST A RECALL 6"],[947,"CDISCPILOT01","FT","CDISC003",267,"AVL0212","AVL02-List A Word 12","AVLT-REY","FORM 1","RECALLED","RECALLED",null,"",7,8,"WEEK 8","TREATMENT","2013-10-22T13:00",55,"30 MIN POST",1,"PT30M","LIST A RECALL 6"],[948,"CDISCPILOT01","FT","CDISC003",268,"AVL0213","AVL02-List A Word 13","AVLT-REY","FORM 1","NOT RECALLED","NOT RECALLED",null,"",7,8,"WEEK 8","TREATMENT","2013-10-22T13:00",55,"30 MIN POST",1,"PT30M","LIST A RECALL 6"],[949,"CDISCPILOT01","FT","CDISC003",269,"AVL0214","AVL02-List A Word 14","AVLT-REY","FORM 1","NOT RECALLED","NOT RECALLED",null,"",7,8,"WEEK 8","TREATMENT","2013-10-22T13:00",55,"30 MIN POST",1,"PT30M","LIST A RECALL 6"],[950,"CDISCPILOT01","FT","CDISC003",270,"AVL0215","AVL02-List A Word 15","AVLT-REY","FORM 1","NOT RECALLED","NOT RECALLED",null,"",7,8,"WEEK 8","TREATMENT","2013-10-22T13:00",55,"30 MIN POST",1,"PT30M","LIST A RECALL 6"],[951,"CDISCPILOT01","FT","CDISC003",271,"AVL0216","AVL02-List A Total","AVLT-REY","FORM 1","12","12",12,"",7,8,"WEEK 8","TREATMENT","2013-10-22T13:00",55,"30 MIN POST",1,"PT30M","LIST A RECALL 6"],[952,"CDISCPILOT01","FT","CDISC003",272,"AVL0217","AVL02-List A Intrusions","AVLT-REY","FORM 1","0","0",0,"",7,8,"WEEK 8","TREATMENT","2013-10-22T13:00",55,"30 MIN POST",1,"PT30M","LIST A RECALL 6"],[953,"CDISCPILOT01","FT","CDISC003",273,"AVL0201","AVL02-List A Word 1","AVLT-REY","FORM 1","RECALLED","RECALLED",null,"",1,9,"WEEK 12","TREATMENT","2013-11-05T12:00",69,"",null,"",""],[954,"CDISCPILOT01","FT","CDISC003",274,"AVL0202","AVL02-List A Word 2","AVLT-REY","FORM 1","RECALLED","RECALLED",null,"",1,9,"WEEK 12","TREATMENT","2013-11-05T12:00",69,"",null,"",""],[955,"CDISCPILOT01","FT","CDISC003",275,"AVL0203","AVL02-List A Word 3","AVLT-REY","FORM 1","RECALLED","RECALLED",null,"",1,9,"WEEK 12","TREATMENT","2013-11-05T12:00",69,"",null,"",""],[956,"CDISCPILOT01","FT","CDISC003",276,"AVL0204","AVL02-List A Word 4","AVLT-REY","FORM 1","RECALLED","RECALLED",null,"",1,9,"WEEK 12","TREATMENT","2013-11-05T12:00",69,"",null,"",""],[957,"CDISCPILOT01","FT","CDISC003",277,"AVL0205","AVL02-List A Word 5","AVLT-REY","FORM 1","RECALLED","RECALLED",null,"",1,9,"WEEK 12","TREATMENT","2013-11-05T12:00",69,"",null,"",""],[958,"CDISCPILOT01","FT","CDISC003",278,"AVL0206","AVL02-List A Word 6","AVLT-REY","FORM 1","RECALLED","RECALLED",null,"",1,9,"WEEK 12","TREATMENT","2013-11-05T12:00",69,"",null,"",""],[959,"CDISCPILOT01","FT","CDISC003",279,"AVL0207","AVL02-List A Word 7","AVLT-REY","FORM 1","NOT RECALLED","NOT RECALLED",null,"",1,9,"WEEK 12","TREATMENT","2013-11-05T12:00",69,"",null,"",""],[960,"CDISCPILOT01","FT","CDISC003",280,"AVL0208","AVL02-List A Word 8","AVLT-REY","FORM 1","RECALLED","RECALLED",null,"",1,9,"WEEK 12","TREATMENT","2013-11-05T12:00",69,"",null,"",""],[961,"CDISCPILOT01","FT","CDISC003",281,"AVL0209","AVL02-List A Word 9","AVLT-REY","FORM 1","RECALLED","RECALLED",null,"",1,9,"WEEK 12","TREATMENT","2013-11-05T12:00",69,"",null,"",""],[962,"CDISCPILOT01","FT","CDISC003",282,"AVL0210","AVL02-List A Word 10","AVLT-REY","FORM 1","NOT RECALLED","NOT RECALLED",null,"",1,9,"WEEK 12","TREATMENT","2013-11-05T12:00",69,"",null,"",""],[963,"CDISCPILOT01","FT","CDISC003",283,"AVL0211","AVL02-List A Word 11","AVLT-REY","FORM 1","NOT RECALLED","NOT RECALLED",null,"",1,9,"WEEK 12","TREATMENT","2013-11-05T12:00",69,"",null,"",""],[964,"CDISCPILOT01","FT","CDISC003",284,"AVL0212","AVL02-List A Word 12","AVLT-REY","FORM 1","NOT RECALLED","NOT RECALLED",null,"",1,9,"WEEK 12","TREATMENT","2013-11-05T12:00",69,"",null,"",""],[965,"CDISCPILOT01","FT","CDISC003",285,"AVL0213","AVL02-List A Word 13","AVLT-REY","FORM 1","NOT RECALLED","NOT RECALLED",null,"",1,9,"WEEK 12","TREATMENT","2013-11-05T12:00",69,"",null,"",""],[966,"CDISCPILOT01","FT","CDISC003",286,"AVL0214","AVL02-List A Word 14","AVLT-REY","FORM 1","NOT RECALLED","NOT RECALLED",null,"",1,9,"WEEK 12","TREATMENT","2013-11-05T12:00",69,"",null,"",""],[967,"CDISCPILOT01","FT","CDISC003",287,"AVL0215","AVL02-List A Word 15","AVLT-REY","FORM 1","NOT RECALLED","NOT RECALLED",null,"",1,9,"WEEK 12","TREATMENT","2013-11-05T12:00",69,"",null,"",""],[968,"CDISCPILOT01","FT","CDISC003",288,"AVL0216","AVL02-List A Total","AVLT-REY","FORM 1","8","8",8,"",1,9,"WEEK 12","TREATMENT","2013-11-05T12:00",69,"",null,"",""],[969,"CDISCPILOT01","FT","CDISC003",289,"AVL0217","AVL02-List A Intrusions","AVLT-REY","FORM 1","2","2",2,"",1,9,"WEEK 12","TREATMENT","2013-11-05T12:00",69,"",null,"",""],[970,"CDISCPILOT01","FT","CDISC003",290,"AVL0201","AVL02-List A Word 1","AVLT-REY","FORM 1","RECALLED","RECALLED",null,"",2,9,"WEEK 12","TREATMENT","2013-11-05T12:05",69,"",null,"",""],[971,"CDISCPILOT01","FT","CDISC003",291,"AVL0202","AVL02-List A Word 2","AVLT-REY","FORM 1","RECALLED","RECALLED",null,"",2,9,"WEEK 12","TREATMENT","2013-11-05T12:05",69,"",null,"",""],[972,"CDISCPILOT01","FT","CDISC003",292,"AVL0203","AVL02-List A Word 3","AVLT-REY","FORM 1","RECALLED","RECALLED",null,"",2,9,"WEEK 12","TREATMENT","2013-11-05T12:05",69,"",null,"",""],[973,"CDISCPILOT01","FT","CDISC003",293,"AVL0204","AVL02-List A Word 4","AVLT-REY","FORM 1","RECALLED","RECALLED",null,"",2,9,"WEEK 12","TREATMENT","2013-11-05T12:05",69,"",null,"",""],[974,"CDISCPILOT01","FT","CDISC003",294,"AVL0205","AVL02-List A Word 5","AVLT-REY","FORM 1","RECALLED","RECALLED",null,"",2,9,"WEEK 12","TREATMENT","2013-11-05T12:05",69,"",null,"",""],[975,"CDISCPILOT01","FT","CDISC003",295,"AVL0206","AVL02-List A Word 6","AVLT-REY","FORM 1","RECALLED","RECALLED",null,"",2,9,"WEEK 12","TREATMENT","2013-11-05T12:05",69,"",null,"",""],[976,"CDISCPILOT01","FT","CDISC003",296,"AVL0207","AVL02-List A Word 7","AVLT-REY","FORM 1","NOT RECALLED","NOT RECALLED",null,"",2,9,"WEEK 12","TREATMENT","2013-11-05T12:05",69,"",null,"",""],[977,"CDISCPILOT01","FT","CDISC003",297,"AVL0208","AVL02-List A Word 8","AVLT-REY","FORM 1","RECALLED","RECALLED",null,"",2,9,"WEEK 12","TREATMENT","2013-11-05T12:05",69,"",null,"",""],[978,"CDISCPILOT01","FT","CDISC003",298,"AVL0209","AVL02-List A Word 9","AVLT-REY","FORM 1","RECALLED","RECALLED",null,"",2,9,"WEEK 12","TREATMENT","2013-11-05T12:05",69,"",null,"",""],[979,"CDISCPILOT01","FT","CDISC003",299,"AVL0210","AVL02-List A Word 10","AVLT-REY","FORM 1","NOT RECALLED","NOT RECALLED",null,"",2,9,"WEEK 12","TREATMENT","2013-11-05T12:05",69,"",null,"",""],[980,"CDISCPILOT01","FT","CDISC003",300,"AVL0211","AVL02-List A Word 11","AVLT-REY","FORM 1","NOT RECALLED","NOT RECALLED",null,"",2,9,"WEEK 12","TREATMENT","2013-11-05T12:05",69,"",null,"",""],[981,"CDISCPILOT01","FT","CDISC003",301,"AVL0212","AVL02-List A Word 12","AVLT-REY","FORM 1","NOT RECALLED","NOT RECALLED",null,"",2,9,"WEEK 12","TREATMENT","2013-11-05T12:05",69,"",null,"",""],[982,"CDISCPILOT01","FT","CDISC003",302,"AVL0213","AVL02-List A Word 13","AVLT-REY","FORM 1","NOT RECALLED","NOT RECALLED",null,"",2,9,"WEEK 12","TREATMENT","2013-11-05T12:05",69,"",null,"",""],[983,"CDISCPILOT01","FT","CDISC003",303,"AVL0214","AVL02-List A Word 14","AVLT-REY","FORM 1","NOT RECALLED","NOT RECALLED",null,"",2,9,"WEEK 12","TREATMENT","2013-11-05T12:05",69,"",null,"",""],[984,"CDISCPILOT01","FT","CDISC003",304,"AVL0215","AVL02-List A Word 15","AVLT-REY","FORM 1","NOT RECALLED","NOT RECALLED",null,"",2,9,"WEEK 12","TREATMENT","2013-11-05T12:05",69,"",null,"",""],[985,"CDISCPILOT01","FT","CDISC003",305,"AVL0216","AVL02-List A Total","AVLT-REY","FORM 1","8","8",8,"",2,9,"WEEK 12","TREATMENT","2013-11-05T12:05",69,"",null,"",""],[986,"CDISCPILOT01","FT","CDISC003",306,"AVL0217","AVL02-List A Intrusions","AVLT-REY","FORM 1","1","1",1,"",2,9,"WEEK 12","TREATMENT","2013-11-05T12:05",69,"",null,"",""],[987,"CDISCPILOT01","FT","CDISC003",307,"AVL0201","AVL02-List A Word 1","AVLT-REY","FORM 1","RECALLED","RECALLED",null,"",3,9,"WEEK 12","TREATMENT","2013-11-05T12:10",69,"",null,"",""],[988,"CDISCPILOT01","FT","CDISC003",308,"AVL0202","AVL02-List A Word 2","AVLT-REY","FORM 1","RECALLED","RECALLED",null,"",3,9,"WEEK 12","TREATMENT","2013-11-05T12:10",69,"",null,"",""],[989,"CDISCPILOT01","FT","CDISC003",309,"AVL0203","AVL02-List A Word 3","AVLT-REY","FORM 1","RECALLED","RECALLED",null,"",3,9,"WEEK 12","TREATMENT","2013-11-05T12:10",69,"",null,"",""],[990,"CDISCPILOT01","FT","CDISC003",310,"AVL0204","AVL02-List A Word 4","AVLT-REY","FORM 1","RECALLED","RECALLED",null,"",3,9,"WEEK 12","TREATMENT","2013-11-05T12:10",69,"",null,"",""],[991,"CDISCPILOT01","FT","CDISC003",311,"AVL0205","AVL02-List A Word 5","AVLT-REY","FORM 1","RECALLED","RECALLED",null,"",3,9,"WEEK 12","TREATMENT","2013-11-05T12:10",69,"",null,"",""],[992,"CDISCPILOT01","FT","CDISC003",312,"AVL0206","AVL02-List A Word 6","AVLT-REY","FORM 1","RECALLED","RECALLED",null,"",3,9,"WEEK 12","TREATMENT","2013-11-05T12:10",69,"",null,"",""],[993,"CDISCPILOT01","FT","CDISC003",313,"AVL0207","AVL02-List A Word 7","AVLT-REY","FORM 1","NOT RECALLED","NOT RECALLED",null,"",3,9,"WEEK 12","TREATMENT","2013-11-05T12:10",69,"",null,"",""],[994,"CDISCPILOT01","FT","CDISC003",314,"AVL0208","AVL02-List A Word 8","AVLT-REY","FORM 1","RECALLED","RECALLED",null,"",3,9,"WEEK 12","TREATMENT","2013-11-05T12:10",69,"",null,"",""],[995,"CDISCPILOT01","FT","CDISC003",315,"AVL0209","AVL02-List A Word 9","AVLT-REY","FORM 1","RECALLED","RECALLED",null,"",3,9,"WEEK 12","TREATMENT","2013-11-05T12:10",69,"",null,"",""],[996,"CDISCPILOT01","FT","CDISC003",316,"AVL0210","AVL02-List A Word 10","AVLT-REY","FORM 1","RECALLED","RECALLED",null,"",3,9,"WEEK 12","TREATMENT","2013-11-05T12:10",69,"",null,"",""],[997,"CDISCPILOT01","FT","CDISC003",317,"AVL0211","AVL02-List A Word 11","AVLT-REY","FORM 1","RECALLED","RECALLED",null,"",3,9,"WEEK 12","TREATMENT","2013-11-05T12:10",69,"",null,"",""],[998,"CDISCPILOT01","FT","CDISC003",318,"AVL0212","AVL02-List A Word 12","AVLT-REY","FORM 1","NOT RECALLED","NOT RECALLED",null,"",3,9,"WEEK 12","TREATMENT","2013-11-05T12:10",69,"",null,"",""],[999,"CDISCPILOT01","FT","CDISC003",319,"AVL0213","AVL02-List A Word 13","AVLT-REY","FORM 1","NOT RECALLED","NOT RECALLED",null,"",3,9,"WEEK 12","TREATMENT","2013-11-05T12:10",69,"",null,"",""],[1000,"CDISCPILOT01","FT","CDISC003",320,"AVL0214","AVL02-List A Word 14","AVLT-REY","FORM 1","NOT RECALLED","NOT RECALLED",null,"",3,9,"WEEK 12","TREATMENT","2013-11-05T12:10",69,"",null,"",""],[1001,"CDISCPILOT01","FT","CDISC003",321,"AVL0215","AVL02-List A Word 15","AVLT-REY","FORM 1","NOT RECALLED","NOT RECALLED",null,"",3,9,"WEEK 12","TREATMENT","2013-11-05T12:10",69,"",null,"",""],[1002,"CDISCPILOT01","FT","CDISC003",322,"AVL0216","AVL02-List A Total","AVLT-REY","FORM 1","10","10",10,"",3,9,"WEEK 12","TREATMENT","2013-11-05T12:10",69,"",null,"",""],[1003,"CDISCPILOT01","FT","CDISC003",323,"AVL0217","AVL02-List A Intrusions","AVLT-REY","FORM 1","1","1",1,"",3,9,"WEEK 12","TREATMENT","2013-11-05T12:10",69,"",null,"",""],[1004,"CDISCPILOT01","FT","CDISC003",324,"AVL0201","AVL02-List A Word 1","AVLT-REY","FORM 1","RECALLED","RECALLED",null,"",4,9,"WEEK 12","TREATMENT","2013-11-05T12:15",69,"",null,"",""],[1005,"CDISCPILOT01","FT","CDISC003",325,"AVL0202","AVL02-List A Word 2","AVLT-REY","FORM 1","RECALLED","RECALLED",null,"",4,9,"WEEK 12","TREATMENT","2013-11-05T12:15",69,"",null,"",""],[1006,"CDISCPILOT01","FT","CDISC003",326,"AVL0203","AVL02-List A Word 3","AVLT-REY","FORM 1","RECALLED","RECALLED",null,"",4,9,"WEEK 12","TREATMENT","2013-11-05T12:15",69,"",null,"",""],[1007,"CDISCPILOT01","FT","CDISC003",327,"AVL0204","AVL02-List A Word 4","AVLT-REY","FORM 1","RECALLED","RECALLED",null,"",4,9,"WEEK 12","TREATMENT","2013-11-05T12:15",69,"",null,"",""],[1008,"CDISCPILOT01","FT","CDISC003",328,"AVL0205","AVL02-List A Word 5","AVLT-REY","FORM 1","RECALLED","RECALLED",null,"",4,9,"WEEK 12","TREATMENT","2013-11-05T12:15",69,"",null,"",""],[1009,"CDISCPILOT01","FT","CDISC003",329,"AVL0206","AVL02-List A Word 6","AVLT-REY","FORM 1","RECALLED","RECALLED",null,"",4,9,"WEEK 12","TREATMENT","2013-11-05T12:15",69,"",null,"",""],[1010,"CDISCPILOT01","FT","CDISC003",330,"AVL0207","AVL02-List A Word 7","AVLT-REY","FORM 1","NOT RECALLED","NOT RECALLED",null,"",4,9,"WEEK 12","TREATMENT","2013-11-05T12:15",69,"",null,"",""],[1011,"