{"clinicalData":{"studyOID":"CDISCPILOT01","metaDataVersionOID":"CDISC.ADaM.2.1","itemGroupData":{"IG.ADAEDT":{"records":1191,"name":"ADAEDT","label":"Adverse Events Analysis Dataset (update)","items":[{"OID":"ITEMGROUPDATASEQ","name":"ITEMGROUPDATASEQ","label":"Record Identifier","type":"integer"},{"OID":"IT.ADAEDT.USUBJID","name":"USUBJID","label":"Unique Subject Identifier","type":"string","length":11},{"OID":"IT.ADAEDT.TRTSDT","name":"TRTSDT","label":"Date of First Exposure to Treatment","type":"float","length":8},{"OID":"IT.ADAEDT.TRTSDTC","name":"TRTSDTC","type":"string","length":32},{"OID":"IT.ADAEDT.TRTSDTM","name":"TRTSDTM","type":"float","length":8},{"OID":"IT.ADAEDT.TRTSDTMC","name":"TRTSDTMC","type":"string","length":32},{"OID":"IT.ADAEDT.TRTEDT","name":"TRTEDT","label":"Date of Last Exposure to Treatment","type":"float","length":8},{"OID":"IT.ADAEDT.TRTEDTC","name":"TRTEDTC","type":"string","length":32},{"OID":"IT.ADAEDT.TRTEDTM","name":"TRTEDTM","type":"float","length":8},{"OID":"IT.ADAEDT.TRTEDTMC","name":"TRTEDTMC","type":"string","length":32},{"OID":"IT.ADAEDT.ASTDT","name":"ASTDT","label":"Analysis Start Date","type":"float","length":8},{"OID":"IT.ADAEDT.ASTDTC","name":"ASTDTC","type":"string","length":32},{"OID":"IT.ADAEDT.ASTDTM","name":"ASTDTM","type":"float","length":8},{"OID":"IT.ADAEDT.ASTDTMC","name":"ASTDTMC","type":"string","length":32}],"itemData":[[1,"01-701-1015",19725,"2014-01-02",1704266376.79,"2014-01-02T07:19:36.79",19906,"2014-07-02",1719941079.53,"2014-07-02T17:24:39.53",19726,"2014-01-03",1704345126.99,"2014-01-03T05:12:06.99"],[2,"01-701-1015",19725,"2014-01-02",1704270579.75,"2014-01-02T08:29:39.75",19906,"2014-07-02",1719882639.28,"2014-07-02T01:10:39.28",19726,"2014-01-03",1704327453.62,"2014-01-03T00:17:33.62"],[3,"01-701-1015",19725,"2014-01-02",1704242405.41,"2014-01-02T00:40:05.41",19906,"2014-07-02",1719910402.54,"2014-07-02T08:53:22.54",19732,"2014-01-09",1704872577.76,"2014-01-09T07:42:57.76"],[4,"01-701-1023",19210,"2012-08-05",1659800088.92,"2012-08-05T15:34:48.92",19237,"2012-09-01",1662108385.32,"2012-09-01T08:46:25.32",19212,"2012-08-07",1660002976.3,"2012-08-07T23:56:16.30"],[5,"01-701-1023",19210,"2012-08-05",1659801842.59,"2012-08-05T16:04:02.59",19237,"2012-09-01",1662118129.46,"2012-09-01T11:28:49.46",19212,"2012-08-07",1659954454.12,"2012-08-07T10:27:34.12"],[6,"01-701-1023",19210,"2012-08-05",1659777807.72,"2012-08-05T09:23:27.72",19237,"2012-09-01",1662081769.43,"2012-09-01T01:22:49.43",19231,"2012-08-26",1661581350.96,"2012-08-26T06:22:30.96"],[7,"01-701-1023",19210,"2012-08-05",1659762529.64,"2012-08-05T05:08:49.64",19237,"2012-09-01",1662124573.03,"2012-09-01T13:16:13.03",19212,"2012-08-07",1659992397.74,"2012-08-07T20:59:57.74"],[8,"01-701-1028",19558,"2013-07-19",1689813069.03,"2013-07-19T00:31:09.03",19737,"2014-01-14",1705309912.95,"2014-01-14T09:11:52.95",19560,"2013-07-21",1690048392.44,"2013-07-21T17:53:12.44"],[9,"01-701-1028",19558,"2013-07-19",1689868579.28,"2013-07-19T15:56:19.28",19737,"2014-01-14",1705287093.8,"2014-01-14T02:51:33.80",19578,"2013-08-08",1691615165.1,"2013-08-08T21:06:05.10"],[10,"01-701-1034",19905,"2014-07-01",1719867198.11,"2014-07-01T20:53:18.11",20087,"2014-12-30",1735530706.54,"2014-12-30T03:51:46.54",19962,"2014-08-27",1724722894.32,"2014-08-27T01:41:34.32"],[11,"01-701-1034",19905,"2014-07-01",1719846433.09,"2014-07-01T15:07:13.09",20087,"2014-12-30",1735548874.82,"2014-12-30T08:54:34.82",20029,"2014-11-02",1730564908.73,"2014-11-02T16:28:28.73"],[12,"01-701-1047",19401,"2013-02-12",1676300553.53,"2013-02-12T15:02:33.53",19426,"2013-03-09",1678481924.12,"2013-03-09T20:58:44.12",19401,"2013-02-12",1676265520.32,"2013-02-12T05:18:40.32"],[13,"01-701-1047",19401,"2013-02-12",1676271326.32,"2013-02-12T06:55:26.32",19426,"2013-03-09",1678421505.23,"2013-03-09T04:11:45.23",19401,"2013-02-12",1676322455.79,"2013-02-12T21:07:35.79"],[14,"01-701-1047",19401,"2013-02-12",1676272889.3,"2013-02-12T07:21:29.30",19426,"2013-03-09",1678468026.34,"2013-03-09T17:07:06.34",19423,"2013-03-06",1678160413.58,"2013-03-06T03:40:13.58"],[15,"01-701-1047",19401,"2013-02-12",1676324582.36,"2013-02-12T21:43:02.36",19426,"2013-03-09",1678444759.11,"2013-03-09T10:39:19.11",19427,"2013-03-10",1678577714.47,"2013-03-10T23:35:14.47"],[16,"01-701-1097",19724,"2014-01-01",1704160687.36,"2014-01-01T01:58:07.36",19913,"2014-07-09",1720567540.17,"2014-07-09T23:25:40.17",19726,"2014-01-03",1704403485.37,"2014-01-03T21:24:45.37"],[17,"01-701-1097",19724,"2014-01-01",1704200492.28,"2014-01-01T13:01:32.28",19913,"2014-07-09",1720490601.53,"2014-07-09T02:03:21.53",19774,"2014-02-20",1708522932.93,"2014-02-20T13:42:12.93"],[18,"01-701-1097",19724,"2014-01-01",1704189164.87,"2014-01-01T09:52:44.87",19913,"2014-07-09",1720554885.15,"2014-07-09T19:54:45.15",19774,"2014-02-20",1708508906.97,"2014-02-20T09:48:26.97"],[19,"01-701-1097",19724,"2014-01-01",1704236514.35,"2014-01-01T23:01:54.35",19913,"2014-07-09",1720497047.23,"2014-07-09T03:50:47.23",19775,"2014-02-21",1708581536.84,"2014-02-21T05:58:56.84"],[20,"01-701-1097",19724,"2014-01-01",1704205368.06,"2014-01-01T14:22:48.06",19913,"2014-07-09",1720487525.47,"2014-07-09T01:12:05.47",19803,"2014-03-21",1711001721.48,"2014-03-21T06:15:21.48"],[21,"01-701-1097",19724,"2014-01-01",1704235174.77,"2014-01-01T22:39:34.77",19913,"2014-07-09",1720526388.47,"2014-07-09T11:59:48.47",19813,"2014-03-31",1711868193.69,"2014-03-31T06:56:33.69"],[22,"01-701-1097",19724,"2014-01-01",1704239603.1,"2014-01-01T23:53:23.10",19913,"2014-07-09",1720534110.58,"2014-07-09T14:08:30.58",19832,"2014-04-19",1713537141.41,"2014-04-19T14:32:21.41"],[23,"01-701-1097",19724,"2014-01-01",1704226096.92,"2014-01-01T20:08:16.92",19913,"2014-07-09",1720506437.03,"2014-07-09T06:27:17.03",19832,"2014-04-19",1713558565.81,"2014-04-19T20:29:25.81"],[24,"01-701-1097",19724,"2014-01-01",1704214449.89,"2014-01-01T16:54:09.89",19913,"2014-07-09",1720497787.97,"2014-07-09T04:03:07.97",19832,"2014-04-19",1713559637.75,"2014-04-19T20:47:17.75"],[25,"01-701-1097",19724,"2014-01-01",1704206101.77,"2014-01-01T14:35:01.77",19913,"2014-07-09",1720548102.56,"2014-07-09T18:01:42.56",19775,"2014-02-21",1708639209.49,"2014-02-21T22:00:09.49"],[26,"01-701-1111",19243,"2012-09-07",1662610709.61,"2012-09-07T04:18:29.61",19252,"2012-09-16",1663384671.91,"2012-09-16T03:17:51.91",19238,"2012-09-02",1662193057.06,"2012-09-02T08:17:37.06"],[27,"01-701-1111",19243,"2012-09-07",1662611597.01,"2012-09-07T04:33:17.01",19252,"2012-09-16",1663376289.55,"2012-09-16T00:58:09.55",19238,"2012-09-02",1662176214.85,"2012-09-02T03:36:54.85"],[28,"01-701-1111",19243,"2012-09-07",1662664638.33,"2012-09-07T19:17:18.33",19252,"2012-09-16",1663373371.05,"2012-09-16T00:09:31.05",19182,"2012-07-08",1657373485.12,"2012-07-08T13:31:25.12"],[29,"01-701-1111",19243,"2012-09-07",1662672468.15,"2012-09-07T21:27:48.15",19252,"2012-09-16",1663452312.16,"2012-09-16T22:05:12.16",19238,"2012-09-02",1662231064.93,"2012-09-02T18:51:04.93"],[30,"01-701-1111",19243,"2012-09-07",1662601746.83,"2012-09-07T01:49:06.83",19252,"2012-09-16",1663415357.05,"2012-09-16T11:49:17.05",19238,"2012-09-02",1662212895.08,"2012-09-02T13:48:15.08"],[31,"01-701-1111",19243,"2012-09-07",1662675243.82,"2012-09-07T22:14:03.82",19252,"2012-09-16",1663439351.51,"2012-09-16T18:29:11.51",19243,"2012-09-07",1662612361.91,"2012-09-07T04:46:01.91"],[32,"01-701-1111",19243,"2012-09-07",1662610235.86,"2012-09-07T04:10:35.86",19252,"2012-09-16",1663447941.65,"2012-09-16T20:52:21.65",19249,"2012-09-13",1663125215.88,"2012-09-13T03:13:35.88"],[33,"01-701-1111",19243,"2012-09-07",1662660181.06,"2012-09-07T18:03:01.06",19252,"2012-09-16",1663373588.79,"2012-09-16T00:13:08.79",19249,"2012-09-13",1663197266.07,"2012-09-13T23:14:26.07"],[34,"01-701-1115",19327,"2012-11-30",1669858970.29,"2012-11-30T01:42:50.29",19381,"2013-01-23",1674577693.27,"2013-01-23T16:28:13.27",19329,"2012-12-02",1670067977.33,"2012-12-02T11:46:17.33"],[35,"01-701-1115",19327,"2012-11-30",1669926885.17,"2012-11-30T20:34:45.17",19381,"2013-01-23",1674593969.45,"2013-01-23T20:59:29.45",19329,"2012-12-02",1670055429.46,"2012-12-02T08:17:09.46"],[36,"01-701-1115",19327,"2012-11-30",1669937157.04,"2012-11-30T23:25:57.04",19381,"2013-01-23",1674539571.16,"2013-01-23T05:52:51.16",19353,"2012-12-26",1672104827.02,"2012-12-26T01:33:47.02"],[37,"01-701-1115",19327,"2012-11-30",1669891753.18,"2012-11-30T10:49:13.18",19381,"2013-01-23",1674555268.18,"2013-01-23T10:14:28.18",19353,"2012-12-26",1672116270.57,"2012-12-26T04:44:30.57"],[38,"01-701-1115",19327,"2012-11-30",1669888607.26,"2012-11-30T09:56:47.26",19381,"2013-01-23",1674559091.85,"2013-01-23T11:18:11.85",19329,"2012-12-02",1670049032.15,"2012-12-02T06:30:32.15"],[39,"01-701-1115",19327,"2012-11-30",1669900728.64,"2012-11-30T13:18:48.64",19381,"2013-01-23",1674536873.23,"2013-01-23T05:07:53.23",19329,"2012-12-02",1670060732.6,"2012-12-02T09:45:32.60"],[40,"01-701-1115",19327,"2012-11-30",1669897520.4,"2012-11-30T12:25:20.40",19381,"2013-01-23",1674599682.86,"2013-01-23T22:34:42.86",19372,"2013-01-14",1673768786.97,"2013-01-14T07:46:26.97"],[41,"01-701-1115",19327,"2012-11-30",1669857277.53,"2012-11-30T01:14:37.53",19381,"2013-01-23",1674533823.72,"2013-01-23T04:17:03.72",19377,"2013-01-19",1674192717.81,"2013-01-19T05:31:57.81"],[42,"01-701-1115",19327,"2012-11-30",1669935396.64,"2012-11-30T22:56:36.64",19381,"2013-01-23",1674572985.4,"2013-01-23T15:09:45.40",19377,"2013-01-19",1674206972.03,"2013-01-19T09:29:32.03"],[43,"01-701-1118",19794,"2014-03-12",1710232183.33,"2014-03-12T08:29:43.33",19975,"2014-09-09",1725872380.49,"2014-09-09T08:59:40.49",null,".",null,"."],[44,"01-701-1130",19769,"2014-02-15",1708092160.16,"2014-02-15T14:02:40.16",19951,"2014-08-16",1723841220.56,"2014-08-16T20:47:00.56",19791,"2014-03-09",1710025321.51,"2014-03-09T23:02:01.51"],[45,"01-701-1130",19769,"2014-02-15",1708062916.01,"2014-02-15T05:55:16.01",19951,"2014-08-16",1723791255.26,"2014-08-16T06:54:15.26",19791,"2014-03-09",1710022339.47,"2014-03-09T22:12:19.47"],[46,"01-701-1130",19769,"2014-02-15",1708090180.96,"2014-02-15T13:29:40.96",19951,"2014-08-16",1723786689.11,"2014-08-16T05:38:09.11",19791,"2014-03-09",1709969204.03,"2014-03-09T07:26:44.03"],[47,"01-701-1130",19769,"2014-02-15",1708066395.56,"2014-02-15T06:53:15.56",19951,"2014-08-16",1723777484.65,"2014-08-16T03:04:44.65",19852,"2014-05-09",1715262933.31,"2014-05-09T13:55:33.31"],[48,"01-701-1130",19769,"2014-02-15",1708094779.54,"2014-02-15T14:46:19.54",19951,"2014-08-16",1723774894.83,"2014-08-16T02:21:34.83",19852,"2014-05-09",1715260035.81,"2014-05-09T13:07:15.81"],[49,"01-701-1130",19769,"2014-02-15",1708081703.47,"2014-02-15T11:08:23.47",19951,"2014-08-16",1723833398.94,"2014-08-16T18:36:38.94",19865,"2014-05-22",1716394066.93,"2014-05-22T16:07:46.93"],[50,"01-701-1130",19769,"2014-02-15",1708127061.4,"2014-02-15T23:44:21.40",19951,"2014-08-16",1723841270.12,"2014-08-16T20:47:50.12",19865,"2014-05-22",1716362695.93,"2014-05-22T07:24:55.93"],[51,"01-701-1130",19769,"2014-02-15",1708093252.72,"2014-02-15T14:20:52.72",19951,"2014-08-16",1723842736.21,"2014-08-16T21:12:16.21",19865,"2014-05-22",1716416892.16,"2014-05-22T22:28:12.16"],[52,"01-701-1133",19294,"2012-10-28",1667038152.96,"2012-10-28T10:09:12.96",19476,"2013-04-28",1682775274.67,"2013-04-28T13:34:34.67",19354,"2012-12-27",1672201808.32,"2012-12-27T04:30:08.32"],[53,"01-701-1133",19294,"2012-10-28",1667002795.47,"2012-10-28T00:19:55.47",19476,"2013-04-28",1682773832.15,"2013-04-28T13:10:32.15",19354,"2012-12-27",1672229950.53,"2012-12-27T12:19:10.53"],[54,"01-701-1133",19294,"2012-10-28",1667051255.98,"2012-10-28T13:47:35.98",19476,"2013-04-28",1682782076.25,"2013-04-28T15:27:56.25",19354,"2012-12-27",1672269341.28,"2012-12-27T23:15:41.28"],[55,"01-701-1133",19294,"2012-10-28",1667037082.08,"2012-10-28T09:51:22.08",19476,"2013-04-28",1682808711.73,"2013-04-28T22:51:51.73",19354,"2012-12-27",1672223729.11,"2012-12-27T10:35:29.11"],[56,"01-701-1146",19498,"2013-05-20",1684679980.91,"2013-05-20T14:39:40.91",19535,"2013-06-26",1687847817.72,"2013-06-26T06:36:57.72",19494,"2013-05-16",1684353502.7,"2013-05-16T19:58:22.70"],[57,"01-701-1146",19498,"2013-05-20",1684631725.03,"2013-05-20T01:15:25.03",19535,"2013-06-26",1687875501.57,"2013-06-26T14:18:21.57",19494,"2013-05-16",1684343807.37,"2013-05-16T17:16:47.37"],[58,"01-701-1146",19498,"2013-05-20",1684659482.01,"2013-05-20T08:58:02.01",19535,"2013-06-26",1687896476.26,"2013-06-26T20:07:56.26",19510,"2013-06-01",1685735080.65,"2013-06-01T19:44:40.65"],[59,"01-701-1146",19498,"2013-05-20",1684710369.25,"2013-05-20T23:06:09.25",19535,"2013-06-26",1687894770.92,"2013-06-26T19:39:30.92",19512,"2013-06-03",1685899835.07,"2013-06-03T17:30:35.07"],[60,"01-701-1146",19498,"2013-05-20",1684645832.77,"2013-05-20T05:10:32.77",19535,"2013-06-26",1687836191.03,"2013-06-26T03:23:11.03",19519,"2013-06-10",1686489844.64,"2013-06-10T13:24:04.64"],[61,"01-701-1146",19498,"2013-05-20",1684694338.41,"2013-05-20T18:38:58.41",19535,"2013-06-26",1687889654.53,"2013-06-26T18:14:14.53",19519,"2013-06-10",1686492528.46,"2013-06-10T14:08:48.46"],[62,"01-701-1146",19498,"2013-05-20",1684695666.86,"2013-05-20T19:01:06.86",19535,"2013-06-26",1687901613.36,"2013-06-26T21:33:33.36",19519,"2013-06-10",1686483975.28,"2013-06-10T11:46:15.28"],[63,"01-701-1146",19498,"2013-05-20",1684696990.14,"2013-05-20T19:23:10.14",19535,"2013-06-26",1687841037.1,"2013-06-26T04:43:57.10",19519,"2013-06-10",1686494906.76,"2013-06-10T14:48:26.76"],[64,"01-701-1146",19498,"2013-05-20",1684662758.89,"2013-05-20T09:52:38.89",19535,"2013-06-26",1687825003.16,"2013-06-26T00:16:43.16",19531,"2013-06-22",1687490217.81,"2013-06-22T03:16:57.81"],[65,"01-701-1146",19498,"2013-05-20",1684648877.01,"2013-05-20T06:01:17.01",19535,"2013-06-26",1687884793.89,"2013-06-26T16:53:13.89",19535,"2013-06-26",1687896945.58,"2013-06-26T20:15:45.58"],[66,"01-701-1146",19498,"2013-05-20",1684704263.21,"2013-05-20T21:24:23.21",19535,"2013-06-26",1687834347.38,"2013-06-26T02:52:27.38",19535,"2013-06-26",1687886936.14,"2013-06-26T17:28:56.14"],[67,"01-701-1148",19593,"2013-08-23",1692882105.03,"2013-08-23T13:01:45.03",19774,"2014-02-20",1708479790,"2014-02-20T01:43:10.00",19595,"2013-08-25",1693069073.37,"2013-08-25T16:57:53.37"],[68,"01-701-1148",19593,"2013-08-23",1692854486.13,"2013-08-23T05:21:26.13",19774,"2014-02-20",1708519470.57,"2014-02-20T12:44:30.57",19595,"2013-08-25",1693031055.08,"2013-08-25T06:24:15.08"],[69,"01-701-1148",19593,"2013-08-23",1692913988.71,"2013-08-23T21:53:08.71",19774,"2014-02-20",1708493814.24,"2014-02-20T05:36:54.24",19643,"2013-10-12",1697180073.82,"2013-10-12T06:54:33.82"],[70,"01-701-1148",19593,"2013-08-23",1692860966.53,"2013-08-23T07:09:26.53",19774,"2014-02-20",1708504989.73,"2014-02-20T08:43:09.73",19643,"2013-10-12",1697227201.43,"2013-10-12T20:00:01.43"],[71,"01-701-1148",19593,"2013-08-23",1692884106.9,"2013-08-23T13:35:06.90",19774,"2014-02-20",1708518255.52,"2014-02-20T12:24:15.52",19707,"2013-12-15",1702728514.34,"2013-12-15T12:08:34.34"],[72,"01-701-1148",19593,"2013-08-23",1692852939.98,"2013-08-23T04:55:39.98",19774,"2014-02-20",1708480520.94,"2014-02-20T01:55:20.94",19709,"2013-12-17",1702887483.88,"2013-12-17T08:18:03.88"],[73,"01-701-1148",19593,"2013-08-23",1692905261.97,"2013-08-23T19:27:41.97",19774,"2014-02-20",1708516395.44,"2014-02-20T11:53:15.44",19726,"2014-01-03",1704377206.41,"2014-01-03T14:06:46.41"],[74,"01-701-1148",19593,"2013-08-23",1692848225.72,"2013-08-23T03:37:05.72",19774,"2014-02-20",1708479348.9,"2014-02-20T01:35:48.90",19024,"2012-02-01",1643687314.01,"2012-02-01T03:48:34.01"],[75,"01-701-1148",19593,"2013-08-23",1692906730.55,"2013-08-23T19:52:10.55",19774,"2014-02-20",1708538012.75,"2014-02-20T17:53:32.75",19568,"2013-07-29",1690682366.7,"2013-07-29T01:59:26.70"],[76,"01-701-1148",19593,"2013-08-23",1692911347.46,"2013-08-23T21:09:07.46",19774,"2014-02-20",1708544457.2,"2014-02-20T19:40:57.20",19766,"2014-02-12",1707832903.51,"2014-02-12T14:01:43.51"],[77,"01-701-1153",19624,"2013-09-23",1695567765.29,"2013-09-23T15:02:45.29",19798,"2014-03-16",1710569935.41,"2014-03-16T06:18:55.41",19644,"2013-10-13",1697315525.65,"2013-10-13T20:32:05.65"],[78,"01-701-1153",19624,"2013-09-23",1695553593.12,"2013-09-23T11:06:33.12",19798,"2014-03-16",1710595405.3,"2014-03-16T13:23:25.30",19644,"2013-10-13",1697260828.55,"2013-10-13T05:20:28.55"],[79,"01-701-1180",19401,"2013-02-12",1676258581.33,"2013-02-12T03:23:01.33",19435,"2013-03-18",1679258423.41,"2013-03-18T20:40:23.41",19401,"2013-02-12",1676270349.15,"2013-02-12T06:39:09.15"],[80,"01-701-1180",19401,"2013-02-12",1676308090.93,"2013-02-12T17:08:10.93",19435,"2013-03-18",1679222797.33,"2013-03-18T10:46:37.33",19401,"2013-02-12",1676302788.37,"2013-02-12T15:39:48.37"],[81,"01-701-1180",19401,"2013-02-12",1676294971.12,"2013-02-12T13:29:31.12",19435,"2013-03-18",1679241171.59,"2013-03-18T15:52:51.59",19404,"2013-02-15",1676572131.95,"2013-02-15T18:28:51.95"],[82,"01-701-1180",19401,"2013-02-12",1676284830.66,"2013-02-12T10:40:30.66",19435,"2013-03-18",1679228682.96,"2013-03-18T12:24:42.96",null,".",null,"."],[83,"01-701-1180",19401,"2013-02-12",1676252938.92,"2013-02-12T01:48:58.92",19435,"2013-03-18",1679230154.53,"2013-03-18T12:49:14.53",19423,"2013-03-06",1678221445.15,"2013-03-06T20:37:25.15"],[84,"01-701-1180",19401,"2013-02-12",1676319407.24,"2013-02-12T20:16:47.24",19435,"2013-03-18",1679216509.18,"2013-03-18T09:01:49.18",19404,"2013-02-15",1676529172.29,"2013-02-15T06:32:52.29"],[85,"01-701-1180",19401,"2013-02-12",1676324940.63,"2013-02-12T21:49:00.63",19435,"2013-03-18",1679215404.71,"2013-03-18T08:43:24.71",19436,"2013-03-19",1679327299.54,"2013-03-19T15:48:19.54"],[86,"01-701-1180",19401,"2013-02-12",1676277286.69,"2013-02-12T08:34:46.69",19435,"2013-03-18",1679248281.04,"2013-03-18T17:51:21.04",19436,"2013-03-19",1679298050.35,"2013-03-19T07:40:50.35"],[87,"01-701-1180",19401,"2013-02-12",1676257656.27,"2013-02-12T03:07:36.27",19435,"2013-03-18",1679264534.48,"2013-03-18T22:22:14.48",19436,"2013-03-19",1679338131.19,"2013-03-19T18:48:51.19"],[88,"01-701-1181",19697,"2013-12-05",1701831383.23,"2013-12-05T02:56:23.23",19701,"2013-12-09",1702201058.39,"2013-12-09T09:37:38.39",19701,"2013-12-09",1702202720.73,"2013-12-09T10:05:20.73"],[89,"01-701-1188",19404,"2013-02-15",1676577062.22,"2013-02-15T19:51:02.22",19441,"2013-03-24",1679723356.22,"2013-03-24T05:49:16.22",19405,"2013-02-16",1676625023.02,"2013-02-16T09:10:23.02"],[90,"01-701-1188",19404,"2013-02-15",1676552787.3,"2013-02-15T13:06:27.30",19441,"2013-03-24",1679742039.09,"2013-03-24T11:00:39.09",19405,"2013-02-16",1676662821.25,"2013-02-16T19:40:21.25"],[91,"01-701-1188",19404,"2013-02-15",1676563849.38,"2013-02-15T16:10:49.38",19441,"2013-03-24",1679732374.88,"2013-03-24T08:19:34.88",19405,"2013-02-16",1676640739.95,"2013-02-16T13:32:19.95"],[92,"01-701-1188",19404,"2013-02-15",1676536737.41,"2013-02-15T08:38:57.41",19441,"2013-03-24",1679711726.98,"2013-03-24T02:35:26.98",19405,"2013-02-16",1676667141.82,"2013-02-16T20:52:21.82"],[93,"01-701-1188",19404,"2013-02-15",1676544908.76,"2013-02-15T10:55:08.76",19441,"2013-03-24",1679745901.59,"2013-03-24T12:05:01.59",19421,"2013-03-04",1678052097.91,"2013-03-04T21:34:57.91"],[94,"01-701-1188",19404,"2013-02-15",1676554855.26,"2013-02-15T13:40:55.26",19441,"2013-03-24",1679726059.57,"2013-03-24T06:34:19.57",19421,"2013-03-04",1678039653.96,"2013-03-04T18:07:33.96"],[95,"01-701-1188",19404,"2013-02-15",1676535845.72,"2013-02-15T08:24:05.72",19441,"2013-03-24",1679735176.22,"2013-03-24T09:06:16.22",19438,"2013-03-21",1679529331.15,"2013-03-21T23:55:31.15"],[96,"01-701-1188",19404,"2013-02-15",1676523149.06,"2013-02-15T04:52:29.06",19441,"2013-03-24",1679787956.39,"2013-03-24T23:45:56.39",19438,"2013-03-21",1679486025.61,"2013-03-21T11:53:45.61"],[97,"01-701-1192",19196,"2012-07-22",1658578091.4,"2012-07-22T12:08:11.40",19378,"2013-01-20",1674290508.54,"2013-01-20T08:41:48.54",19208,"2012-08-03",1659631783.8,"2012-08-03T16:49:43.80"],[98,"01-701-1192",19196,"2012-07-22",1658558694.13,"2012-07-22T06:44:54.13",19378,"2013-01-20",1674323517.23,"2013-01-20T17:51:57.23",19212,"2012-08-07",1659994541.2,"2012-08-07T21:35:41.20"],[99,"01-701-1192",19196,"2012-07-22",1658610426.93,"2012-07-22T21:07:06.93",19378,"2013-01-20",1674336829.2,"2013-01-20T21:33:49.20",19212,"2012-08-07",1659967108.77,"2012-08-07T13:58:28.77"],[100,"01-701-1192",19196,"2012-07-22",1658543748.75,"2012-07-22T02:35:48.75",19378,"2013-01-20",1674298494.02,"2013-01-20T10:54:54.02",18414,"2010-06-01",1591053470.05,"2010-06-01T23:17:50.05"],[101,"01-701-1192",19196,"2012-07-22",1658599401.88,"2012-07-22T18:03:21.88",19378,"2013-01-20",1674303527.94,"2013-01-20T12:18:47.94",19212,"2012-08-07",1659942672.61,"2012-08-07T07:11:12.61"],[102,"01-701-1192",19196,"2012-07-22",1658583100.94,"2012-07-22T13:31:40.94",19378,"2013-01-20",1674304930.29,"2013-01-20T12:42:10.29",19212,"2012-08-07",1659969840.4,"2012-08-07T14:44:00.40"],[103,"01-701-1192",19196,"2012-07-22",1658541368.18,"2012-07-22T01:56:08.18",19378,"2013-01-20",1674297925.4,"2013-01-20T10:45:25.40",19243,"2012-09-07",1662646516.39,"2012-09-07T14:15:16.39"],[104,"01-701-1192",19196,"2012-07-22",1658613095.33,"2012-07-22T21:51:35.33",19378,"2013-01-20",1674317888.13,"2013-01-20T16:18:08.13",19243,"2012-09-07",1662665287.04,"2012-09-07T19:28:07.04"],[105,"01-701-1192",19196,"2012-07-22",1658599934.79,"2012-07-22T18:12:14.79",19378,"2013-01-20",1674341828.21,"2013-01-20T22:57:08.21",18414,"2010-06-01",1591023502,"2010-06-01T14:58:22.00"],[106,"01-701-1192",19196,"2012-07-22",1658580525.35,"2012-07-22T12:48:45.35",19378,"2013-01-20",1674326120.45,"2013-01-20T18:35:20.45",19243,"2012-09-07",1662598111.89,"2012-09-07T00:48:31.89"],[107,"01-701-1192",19196,"2012-07-22",1658581953.7,"2012-07-22T13:12:33.70",19378,"2013-01-20",1674292437.3,"2013-01-20T09:13:57.30",19243,"2012-09-07",1662655689.46,"2012-09-07T16:48:09.46"],[108,"01-701-1192",19196,"2012-07-22",1658558128.81,"2012-07-22T06:35:28.81",19378,"2013-01-20",1674305325.18,"2013-01-20T12:48:45.18",19332,"2012-12-05",1670297803.08,"2012-12-05T03:36:43.08"],[109,"01-701-1192",19196,"2012-07-22",1658581441.57,"2012-07-22T13:04:01.57",19378,"2013-01-20",1674284162.99,"2013-01-20T06:56:02.99",19332,"2012-12-05",1670343255,"2012-12-05T16:14:15.00"],[110,"01-701-1192",19196,"2012-07-22",1658594729.65,"2012-07-22T16:45:29.65",19378,"2013-01-20",1674292671.92,"2013-01-20T09:17:51.92",19332,"2012-12-05",1670305301.28,"2012-12-05T05:41:41.28"],[111,"01-701-1192",19196,"2012-07-22",1658609983.87,"2012-07-22T20:59:43.87",19378,"2013-01-20",1674264426.36,"2013-01-20T01:27:06.36",19332,"2012-12-05",1670302602.04,"2012-12-05T04:56:42.04"],[112,"01-701-1203",19391,"2013-02-02",1675438100.27,"2013-02-02T15:28:20.27",19573,"2013-08-03",1691138425.56,"2013-08-03T08:40:25.56",19438,"2013-03-21",1679509338.2,"2013-03-21T18:22:18.20"],[113,"01-701-1211",19312,"2012-11-15",1668635349.25,"2012-11-15T21:49:09.25",19370,"2013-01-12",1673620589.61,"2013-01-12T14:36:29.61",19313,"2012-11-16",1668662561.39,"2012-11-16T05:22:41.39"],[114,"01-701-1211",19312,"2012-11-15",1668597483.05,"2012-11-15T11:18:03.05",19370,"2013-01-12",1673625867.04,"2013-01-12T16:04:27.04",19318,"2012-11-21",1669123782,"2012-11-21T13:29:42.00"],[115,"01-701-1211",19312,"2012-11-15",1668563251.14,"2012-11-15T01:47:31.14",19370,"2013-01-12",1673598794.65,"2013-01-12T08:33:14.65",19318,"2012-11-21",1669144555.12,"2012-11-21T19:15:55.12"],[116,"01-701-1211",19312,"2012-11-15",1668637594.4,"2012-11-15T22:26:34.40",19370,"2013-01-12",1673620395.17,"2013-01-12T14:33:15.17",19319,"2012-11-22",1669203818.01,"2012-11-22T11:43:38.01"],[117,"01-701-1211",19312,"2012-11-15",1668572885.11,"2012-11-15T04:28:05.11",19370,"2013-01-12",1673652192.93,"2013-01-12T23:23:12.93",19326,"2012-11-29",1669778165.8,"2012-11-29T03:16:05.80"],[118,"01-701-1211",19312,"2012-11-15",1668589994.47,"2012-11-15T09:13:14.47",19370,"2013-01-12",1673638254.22,"2013-01-12T19:30:54.22",19336,"2012-12-09",1670648584.7,"2012-12-09T05:03:04.70"],[119,"01-701-1211",19312,"2012-11-15",1668558123.2,"2012-11-15T00:22:03.20",19370,"2013-01-12",1673638636.4,"2013-01-12T19:37:16.40",19369,"2013-01-11",1673482474.78,"2013-01-11T00:14:34.78"],[120,"01-701-1211",19312,"2012-11-15",1668607377.64,"2012-11-15T14:02:57.64",19370,"2013-01-12",1673597209.65,"2013-01-12T08:06:49.65",19369,"2013-01-11",1673521343,"2013-01-11T11:02:23.00"],[121,"01-701-1211",19312,"2012-11-15",1668628102.42,"2012-11-15T19:48:22.42",19370,"2013-01-12",1673572942.01,"2013-01-12T01:22:22.01",19372,"2013-01-14",1673791914.94,"2013-01-14T14:11:54.94"],[122,"01-701-1239",19734,"2014-01-11",1705069123.31,"2014-01-11T14:18:43.31",19914,"2014-07-10",1720606921.26,"2014-07-10T10:22:01.26",19735,"2014-01-12",1705154799.31,"2014-01-12T14:06:39.31"],[123,"01-701-1239",19734,"2014-01-11",1705049340.53,"2014-01-11T08:49:00.53",19914,"2014-07-10",1720638005.56,"2014-07-10T19:00:05.56",19735,"2014-01-12",1705108133.05,"2014-01-12T01:08:53.05"],[124,"01-701-1239",19734,"2014-01-11",1705092736.13,"2014-01-11T20:52:16.13",19914,"2014-07-10",1720630390.22,"2014-07-10T16:53:10.22",19736,"2014-01-13",1705268043.98,"2014-01-13T21:34:03.98"],[125,"01-701-1239",19734,"2014-01-11",1705055528.46,"2014-01-11T10:32:08.46",19914,"2014-07-10",1720650938.62,"2014-07-10T22:35:38.62",19743,"2014-01-20",1705869910.45,"2014-01-20T20:45:10.45"],[126,"01-701-1239",19734,"2014-01-11",1705092793.04,"2014-01-11T20:53:13.04",19914,"2014-07-10",1720584549.05,"2014-07-10T04:09:09.05",19743,"2014-01-20",1705873408.47,"2014-01-20T21:43:28.47"],[127,"01-701-1239",19734,"2014-01-11",1705076185.8,"2014-01-11T16:16:25.80",19914,"2014-07-10",1720639067.13,"2014-07-10T19:17:47.13",19735,"2014-01-12",1705113671.52,"2014-01-12T02:41:11.52"],[128,"01-701-1239",19734,"2014-01-11",1705026771.57,"2014-01-11T02:32:51.57",19914,"2014-07-10",1720590504.77,"2014-07-10T05:48:24.77",19774,"2014-02-20",1708550148.87,"2014-02-20T21:15:48.87"],[129,"01-701-1239",19734,"2014-01-11",1705089592.05,"2014-01-11T19:59:52.05",19914,"2014-07-10",1720648068.86,"2014-07-10T21:47:48.86",19774,"2014-02-20",1708502136.11,"2014-02-20T07:55:36.11"],[130,"01-701-1239",19734,"2014-01-11",1705068108.57,"2014-01-11T14:01:48.57",19914,"2014-07-10",1720625375.4,"2014-07-10T15:29:35.40",19783,"2014-03-01",1709316078.57,"2014-03-01T18:01:18.57"],[131,"01-701-1239",19734,"2014-01-11",1705021066.3,"2014-01-11T00:57:46.30",19914,"2014-07-10",1720614616.28,"2014-07-10T12:30:16.28",19814,"2014-04-01",1711933793.99,"2014-04-01T01:09:53.99"],[132,"01-701-1275",19761,"2014-02-07",1707399480.37,"2014-02-07T13:38:00.37",19874,"2014-05-31",1717133781.17,"2014-05-31T05:36:21.17",19767,"2014-02-13",1707918094.72,"2014-02-13T13:41:34.72"],[133,"01-701-1275",19761,"2014-02-07",1707419045.06,"2014-02-07T19:04:05.06",19874,"2014-05-31",1717173664.5,"2014-05-31T16:41:04.50",19777,"2014-02-23",1708784613.87,"2014-02-23T14:23:33.87"],[134,"01-701-1275",19761,"2014-02-07",1707379796.37,"2014-02-07T08:09:56.37",19874,"2014-05-31",1717154598.45,"2014-05-31T11:23:18.45",19778,"2014-02-24",1708868135.96,"2014-02-24T13:35:35.96"],[135,"01-701-1275",19761,"2014-02-07",1707380170.63,"2014-02-07T08:16:10.63",19874,"2014-05-31",1717140866.78,"2014-05-31T07:34:26.78",19778,"2014-02-24",1708858611.59,"2014-02-24T10:56:51.59"],[136,"01-701-1275",19761,"2014-02-07",1707428068.89,"2014-02-07T21:34:28.89",19874,"2014-05-31",1717125137.76,"2014-05-31T03:12:17.76",19778,"2014-02-24",1708893168.8,"2014-02-24T20:32:48.80"],[137,"01-701-1275",19761,"2014-02-07",1707368996.97,"2014-02-07T05:09:56.97",19874,"2014-05-31",1717114462.48,"2014-05-31T00:14:22.48",19778,"2014-02-24",1708872258.8,"2014-02-24T14:44:18.80"],[138,"01-701-1275",19761,"2014-02-07",1707434380.59,"2014-02-07T23:19:40.59",19874,"2014-05-31",1717183278.02,"2014-05-31T19:21:18.02",19794,"2014-03-12",1710248449.33,"2014-03-12T13:00:49.33"],[139,"01-701-1275",19761,"2014-02-07",1707420136.83,"2014-02-07T19:22:16.83",19874,"2014-05-31",1717188490.56,"2014-05-31T20:48:10.56",19794,"2014-03-12",1710267942.4,"2014-03-12T18:25:42.40"],[140,"01-701-1275",19761,"2014-02-07",1707410549.53,"2014-02-07T16:42:29.53",19874,"2014-05-31",1717151604.72,"2014-05-31T10:33:24.72",19794,"2014-03-12",1710222610.58,"2014-03-12T05:50:10.58"],[141,"01-701-1275",19761,"2014-02-07",1707431294.35,"2014-02-07T22:28:14.35",19874,"2014-05-31",1717189008.3,"2014-05-31T20:56:48.30",19794,"2014-03-12",1710226562.8,"2014-03-12T06:56:02.80"],[142,"01-701-1275",19761,"2014-02-07",1707359394,"2014-02-07T02:29:54.00",19874,"2014-05-31",1717128808.91,"2014-05-31T04:13:28.91",19767,"2014-02-13",1707916900.38,"2014-02-13T13:21:40.38"],[143,"01-701-1275",19761,"2014-02-07",1707360515.14,"2014-02-07T02:48:35.14",19874,"2014-05-31",1717119476.8,"2014-05-31T01:37:56.80",19778,"2014-02-24",1708844457.47,"2014-02-24T07:00:57.47"],[144,"01-701-1275",19761,"2014-02-07",1707374804.26,"2014-02-07T06:46:44.26",19874,"2014-05-31",1717119228.61,"2014-05-31T01:33:48.61",19778,"2014-02-24",1708858149.54,"2014-02-24T10:49:09.54"],[145,"01-701-1275",19761,"2014-02-07",1707401458.42,"2014-02-07T14:10:58.42",19874,"2014-05-31",1717178462.47,"2014-05-31T18:01:02.47",19778,"2014-02-24",1708857872.59,"2014-02-24T10:44:32.59"],[146,"01-701-1275",19761,"2014-02-07",1707401556.86,"2014-02-07T14:12:36.86",19874,"2014-05-31",1717196561.3,"2014-05-31T23:02:41.30",19778,"2014-02-24",1708822652.13,"2014-02-24T00:57:32.13"],[147,"01-701-1287",19748,"2014-01-25",1706297976.48,"2014-01-25T19:39:36.48",19930,"2014-07-26",1722014902.91,"2014-07-26T17:28:22.91",19749,"2014-01-26",1706365346.86,"2014-01-26T14:22:26.86"],[148,"01-701-1287",19748,"2014-01-25",1706295638.13,"2014-01-25T19:00:38.13",19930,"2014-07-26",1722012731.13,"2014-07-26T16:52:11.13",19776,"2014-02-22",1708724590.76,"2014-02-22T21:43:10.76"],[149,"01-701-1287",19748,"2014-01-25",1706231503.48,"2014-01-25T01:11:43.48",19930,"2014-07-26",1722037352.1,"2014-07-26T23:42:32.10",19791,"2014-03-09",1710022750.21,"2014-03-09T22:19:10.21"],[150,"01-701-1287",19748,"2014-01-25",1706293743.63,"2014-01-25T18:29:03.63",19930,"2014-07-26",1722004100.95,"2014-07-26T14:28:20.95",19913,"2014-07-09",1720490811.58,"2014-07-09T02:06:51.58"],[151,"01-701-1287",19748,"2014-01-25",1706291314.73,"2014-01-25T17:48:34.73",19930,"2014-07-26",1722024195.52,"2014-07-26T20:03:15.52",19913,"2014-07-09",1720493810.68,"2014-07-09T02:56:50.68"],[152,"01-701-1294",19441,"2013-03-24",1679724348.67,"2013-03-24T06:05:48.67",19523,"2013-06-14",1686836544.4,"2013-06-14T13:42:24.40",19439,"2013-03-22",1679558724.82,"2013-03-22T08:05:24.82"],[153,"01-701-1294",19441,"2013-03-24",1679773742.15,"2013-03-24T19:49:02.15",19523,"2013-06-14",1686805929.77,"2013-06-14T05:12:09.77",19497,"2013-05-19",1684566966.03,"2013-05-19T07:16:06.03"],[154,"01-701-1294",19441,"2013-03-24",1679768217.65,"2013-03-24T18:16:57.65",19523,"2013-06-14",1686813367.06,"2013-06-14T07:16:07.06",19497,"2013-05-19",1684541302.1,"2013-05-19T00:08:22.10"],[155,"01-701-1294",19441,"2013-03-24",1679785923.98,"2013-03-24T23:12:03.98",19523,"2013-06-14",1686858211.26,"2013-06-14T19:43:31.26",19497,"2013-05-19",1684565302.51,"2013-05-19T06:48:22.51"],[156,"01-701-1294",19441,"2013-03-24",1679754759.16,"2013-03-24T14:32:39.16",19523,"2013-06-14",1686811558.47,"2013-06-14T06:45:58.47",19497,"2013-05-19",1684610989.49,"2013-05-19T19:29:49.49"],[157,"01-701-1294",19441,"2013-03-24",1679712103.74,"2013-03-24T02:41:43.74",19523,"2013-06-14",1686793179.68,"2013-06-14T01:39:39.68",19519,"2013-06-10",1686515386.66,"2013-06-10T20:29:46.66"],[158,"01-701-1302",19599,"2013-08-29",1693394677.38,"2013-08-29T11:24:37.38",19667,"2013-11-05",1699301570.2,"2013-11-05T20:12:50.20",19600,"2013-08-30",1693463983.19,"2013-08-30T06:39:43.19"],[159,"01-701-1302",19599,"2013-08-29",1693417298.06,"2013-08-29T17:41:38.06",19667,"2013-11-05",1699293345.91,"2013-11-05T17:55:45.91",19600,"2013-08-30",1693520180.34,"2013-08-30T22:16:20.34"],[160,"01-701-1302",19599,"2013-08-29",1693357020.99,"2013-08-29T00:57:00.99",19667,"2013-11-05",1699300795.66,"2013-11-05T19:59:55.66",19600,"2013-08-30",1693443271.85,"2013-08-30T00:54:31.85"],[161,"01-701-1302",19599,"2013-08-29",1693423713.93,"2013-08-29T19:28:33.93",19667,"2013-11-05",1699253747.76,"2013-11-05T06:55:47.76",19601,"2013-08-31",1693601589.83,"2013-08-31T20:53:09.83"],[162,"01-701-1302",19599,"2013-08-29",1693397278.45,"2013-08-29T12:07:58.45",19667,"2013-11-05",1699293481.71,"2013-11-05T17:58:01.71",19602,"2013-09-01",1693697028.92,"2013-09-01T23:23:48.92"],[163,"01-701-1302",19599,"2013-08-29",1693438762.42,"2013-08-29T23:39:22.42",19667,"2013-11-05",1699296393.05,"2013-11-05T18:46:33.05",19603,"2013-09-02",1693719703.07,"2013-09-02T05:41:43.07"],[164,"01-701-1302",19599,"2013-08-29",1693361595.53,"2013-08-29T02:13:15.53",19667,"2013-11-05",1699314443.92,"2013-11-05T23:47:23.92",19603,"2013-09-02",1693726160.35,"2013-09-02T07:29:20.35"],[165,"01-701-1302",19599,"2013-08-29",1693381841.88,"2013-08-29T07:50:41.88",19667,"2013-11-05",1699261631.13,"2013-11-05T09:07:11.13",19603,"2013-09-02",1693782052.99,"2013-09-02T23:00:52.99"],[166,"01-701-1302",19599,"2013-08-29",1693365322.83,"2013-08-29T03:15:22.83",19667,"2013-11-05",1699292599.14,"2013-11-05T17:43:19.14",19603,"2013-09-02",1693709893.32,"2013-09-02T02:58:13.32"],[167,"01-701-1302",19599,"2013-08-29",1693375756.58,"2013-08-29T06:09:16.58",19667,"2013-11-05",1699312913.93,"2013-11-05T23:21:53.93",19603,"2013-09-02",1693716580.59,"2013-09-02T04:49:40.59"],[168,"01-701-1302",19599,"2013-08-29",1693364948.15,"2013-08-29T03:09:08.15",19667,"2013-11-05",1699270969.56,"2013-11-05T11:42:49.56",19605,"2013-09-04",1693930398.55,"2013-09-04T16:13:18.55"],[169,"01-701-1302",19599,"2013-08-29",1693370194.73,"2013-08-29T04:36:34.73",19667,"2013-11-05",1699306325.14,"2013-11-05T21:32:05.14",19606,"2013-09-05",1693959120.05,"2013-09-05T00:12:00.05"],[170,"01-701-1302",19599,"2013-08-29",1693361433.11,"2013-08-29T02:10:33.11",19667,"2013-11-05",1699286180.78,"2013-11-05T15:56:20.78",19616,"2013-09-15",1694903362.89,"2013-09-15T22:29:22.89"],[171,"01-701-1302",19599,"2013-08-29",1693410990.06,"2013-08-29T15:56:30.06",19667,"2013-11-05",1699286423.11,"2013-11-05T16:00:23.11",19631,"2013-09-30",1696132785.56,"2013-09-30T03:59:45.56"],[172,"01-701-1302",19599,"2013-08-29",1693400845.74,"2013-08-29T13:07:25.74",19667,"2013-11-05",1699249776.13,"2013-11-05T05:49:36.13",19606,"2013-09-05",1693964556.05,"2013-09-05T01:42:36.05"],[173,"01-701-1302",19599,"2013-08-29",1693385173.09,"2013-08-29T08:46:13.09",19667,"2013-11-05",1699299189.46,"2013-11-05T19:33:09.46",19646,"2013-10-15",1697454067.51,"2013-10-15T11:01:07.51"],[174,"01-701-1302",19599,"2013-08-29",1693425082.41,"2013-08-29T19:51:22.41",19667,"2013-11-05",1699304803.61,"2013-11-05T21:06:43.61",19646,"2013-10-15",1697480453.79,"2013-10-15T18:20:53.79"],[175,"01-701-1302",19599,"2013-08-29",1693372672.08,"2013-08-29T05:17:52.08",19667,"2013-11-05",1699230064.5,"2013-11-05T00:21:04.50",19603,"2013-09-02",1693721838.21,"2013-09-02T06:17:18.21"],[176,"01-701-1302",19599,"2013-08-29",1693417102.7,"2013-08-29T17:38:22.70",19667,"2013-11-05",1699265704.37,"2013-11-05T10:15:04.37",19654,"2013-10-23",1698188483.97,"2013-10-23T23:01:23.97"],[177,"01-701-1302",19599,"2013-08-29",1693435683.46,"2013-08-29T22:48:03.46",19667,"2013-11-05",1699288693.7,"2013-11-05T16:38:13.70",19654,"2013-10-23",1698191899.86,"2013-10-23T23:58:19.86"],[178,"01-701-1302",19599,"2013-08-29",1693383088.75,"2013-08-29T08:11:28.75",19667,"2013-11-05",1699292814.06,"2013-11-05T17:46:54.06",19655,"2013-10-24",1698250138.56,"2013-10-24T16:08:58.56"],[179,"01-701-1302",19599,"2013-08-29",1693431277.85,"2013-08-29T21:34:37.85",19667,"2013-11-05",1699235614.97,"2013-11-05T01:53:34.97",19655,"2013-10-24",1698260477.32,"2013-10-24T19:01:17.32"],[180,"01-701-1302",19599,"2013-08-29",1693380903.53,"2013-08-29T07:35:03.53",19667,"2013-11-05",1699313664.36,"2013-11-05T23:34:24.36",19655,"2013-10-24",1698213565.59,"2013-10-24T05:59:25.59"],[181,"01-701-1317",19865,"2014-05-22",1716420887.93,"2014-05-22T23:34:47.93",20047,"2014-11-20",1732078294.89,"2014-11-20T04:51:34.89",19856,"2014-05-13",1715604216.14,"2014-05-13T12:43:36.14"],[182,"01-701-1317",19865,"2014-05-22",1716344833.5,"2014-05-22T02:27:13.50",20047,"2014-11-20",1732077353.84,"2014-11-20T04:35:53.84",19856,"2014-05-13",1715582182.55,"2014-05-13T06:36:22.55"],[183,"01-701-1317",19865,"2014-05-22",1716397062.87,"2014-05-22T16:57:42.87",20047,"2014-11-20",1732129156.16,"2014-11-20T18:59:16.16",19897,"2014-06-23",1719161640.96,"2014-06-23T16:54:00.96"],[184,"01-701-1317",19865,"2014-05-22",1716415777.23,"2014-05-22T22:09:37.23",20047,"2014-11-20",1732120397.46,"2014-11-20T16:33:17.46",19897,"2014-06-23",1719103103.42,"2014-06-23T00:38:23.42"],[185,"01-701-1317",19865,"2014-05-22",1716356543.43,"2014-05-22T05:42:23.43",20047,"2014-11-20",1732137081.78,"2014-11-20T21:11:21.78",19897,"2014-06-23",1719149628.45,"2014-06-23T13:33:48.45"],[186,"01-701-1317",19865,"2014-05-22",1716360242.68,"2014-05-22T06:44:02.68",20047,"2014-11-20",1732122517.22,"2014-11-20T17:08:37.22",19908,"2014-07-04",1720073029.82,"2014-07-04T06:03:49.82"],[187,"01-701-1317",19865,"2014-05-22",1716383310.23,"2014-05-22T13:08:30.23",20047,"2014-11-20",1732109297.91,"2014-11-20T13:28:17.91",19908,"2014-07-04",1720081826.25,"2014-07-04T08:30:26.25"],[188,"01-701-1317",19865,"2014-05-22",1716338900.9,"2014-05-22T00:48:20.90",20047,"2014-11-20",1732067156.54,"2014-11-20T01:45:56.54",19978,"2014-09-12",1726152143.1,"2014-09-12T14:42:23.10"],[189,"01-701-1317",19865,"2014-05-22",1716353192.67,"2014-05-22T04:46:32.67",20047,"2014-11-20",1732090768.1,"2014-11-20T08:19:28.10",20030,"2014-11-03",1730651623.08,"2014-11-03T16:33:43.08"],[190,"01-701-1324",19268,"2012-10-02",1664816235.13,"2012-10-02T16:57:15.13",19450,"2013-04-02",1680510438.39,"2013-04-02T08:27:18.39",19288,"2012-10-22",1666483907.67,"2012-10-22T00:11:47.67"],[191,"01-701-1324",19268,"2012-10-02",1664815177.94,"2012-10-02T16:39:37.94",19450,"2013-04-02",1680486078.37,"2013-04-02T01:41:18.37",19329,"2012-12-02",1670110609.4,"2012-12-02T23:36:49.40"],[192,"01-701-1324",19268,"2012-10-02",1664807287.96,"2012-10-02T14:28:07.96",19450,"2013-04-02",1680484769.42,"2013-04-02T01:19:29.42",19352,"2012-12-25",1672034703.34,"2012-12-25T06:05:03.34"],[193,"01-701-1324",19268,"2012-10-02",1664769129.16,"2012-10-02T03:52:09.16",19450,"2013-04-02",1680496815.67,"2013-04-02T04:40:15.67",19352,"2012-12-25",1672024569.38,"2012-12-25T03:16:09.38"],[194,"01-701-1341",19363,"2013-01-05",1673005856.22,"2013-01-05T11:50:56.22",19384,"2013-01-26",1674781571.54,"2013-01-26T01:06:11.54",19377,"2013-01-19",1674255762.58,"2013-01-19T23:02:42.58"],[195,"01-701-1341",19363,"2013-01-05",1672976578.98,"2013-01-05T03:42:58.98",19384,"2013-01-26",1674808436.99,"2013-01-26T08:33:56.99",19377,"2013-01-19",1674222665.96,"2013-01-19T13:51:05.96"],[196,"01-701-1341",19363,"2013-01-05",1673038794.01,"2013-01-05T20:59:54.01",19384,"2013-01-26",1674842292.26,"2013-01-26T17:58:12.26",19384,"2013-01-26",1674819571.16,"2013-01-26T11:39:31.16"],[197,"01-701-1341",19363,"2013-01-05",1673012901.92,"2013-01-05T13:48:21.92",19384,"2013-01-26",1674842373.78,"2013-01-26T17:59:33.78",19384,"2013-01-26",1674847837.02,"2013-01-26T19:30:37.02"],[198,"01-701-1341",19363,"2013-01-05",1673008863.89,"2013-01-05T12:41:03.89",19384,"2013-01-26",1674815334.38,"2013-01-26T10:28:54.38",19384,"2013-01-26",1674825570.61,"2013-01-26T13:19:30.61"],[199,"01-701-1360",19570,"2013-07-31",1690877764.74,"2013-07-31T08:16:04.74",19575,"2013-08-05",1691302222.38,"2013-08-05T06:10:22.38",19572,"2013-08-02",1691044655.17,"2013-08-02T06:37:35.17"],[200,"01-701-1360",19570,"2013-07-31",1690892258.66,"2013-07-31T12:17:38.66",19575,"2013-08-05",1691339612.37,"2013-08-05T16:33:32.37",19572,"2013-08-02",1691025568.66,"2013-08-02T01:19:28.66"],[201,"01-701-1360",19570,"2013-07-31",1690933062.76,"2013-07-31T23:37:42.76",19575,"2013-08-05",1691336044.75,"2013-08-05T15:34:04.75",19575,"2013-08-05",1691339055.22,"2013-08-05T16:24:15.22"],[202,"01-701-1363",19508,"2013-05-30",1685535660.31,"2013-05-30T12:21:00.31",19689,"2013-11-27",1701171497.43,"2013-11-27T11:38:17.43",19523,"2013-06-14",1686822554.33,"2013-06-14T09:49:14.33"],[203,"01-701-1363",19508,"2013-05-30",1685526100.92,"2013-05-30T09:41:40.92",19689,"2013-11-27",1701146695.65,"2013-11-27T04:44:55.65",null,".",null,"."],[204,"01-701-1363",19508,"2013-05-30",1685560470.52,"2013-05-30T19:14:30.52",19689,"2013-11-27",1701188236.65,"2013-11-27T16:17:16.65",19555,"2013-07-16",1689600491.99,"2013-07-16T13:28:11.99"],[205,"01-701-1363",19508,"2013-05-30",1685522997.72,"2013-05-30T08:49:57.72",19689,"2013-11-27",1701160007.63,"2013-11-27T08:26:47.63",null,".",null,"."],[206,"01-701-1363",19508,"2013-05-30",1685506696.19,"2013-05-30T04:18:16.19",19689,"2013-11-27",1701159645.86,"2013-11-27T08:20:45.86",19644,"2013-10-13",1697264898.3,"2013-10-13T06:28:18.30"],[207,"01-701-1363",19508,"2013-05-30",1685497792.86,"2013-05-30T01:49:52.86",19689,"2013-11-27",1701212493.7,"2013-11-27T23:01:33.70",19644,"2013-10-13",1697265718.33,"2013-10-13T06:41:58.33"],[208,"01-701-1383",19393,"2013-02-04",1675560322.44,"2013-02-04T01:25:22.44",19576,"2013-08-06",1691376200.56,"2013-08-06T02:43:20.56",19396,"2013-02-07",1675881692.18,"2013-02-07T18:41:32.18"],[209,"01-701-1383",19393,"2013-02-04",1675619878.46,"2013-02-04T17:57:58.46",19576,"2013-08-06",1691428581.89,"2013-08-06T17:16:21.89",19396,"2013-02-07",1675834752.99,"2013-02-07T05:39:12.99"],[210,"01-701-1383",19393,"2013-02-04",1675585002.73,"2013-02-04T08:16:42.73",19576,"2013-08-06",1691421085.27,"2013-08-06T15:11:25.27",19440,"2013-03-23",1679688915.6,"2013-03-23T20:15:15.60"],[211,"01-701-1383",19393,"2013-02-04",1675592234.34,"2013-02-04T10:17:14.34",19576,"2013-08-06",1691445397.19,"2013-08-06T21:56:37.19",19440,"2013-03-23",1679681410.05,"2013-03-23T18:10:10.05"],[212,"01-701-1383",19393,"2013-02-04",1675616446.39,"2013-02-04T17:00:46.39",19576,"2013-08-06",1691372469.6,"2013-08-06T01:41:09.60",19460,"2013-04-12",1681381361.96,"2013-04-12T10:22:41.96"],[213,"01-701-1383",19393,"2013-02-04",1675631784.07,"2013-02-04T21:16:24.07",19576,"2013-08-06",1691418651.68,"2013-08-06T14:30:51.68",19460,"2013-04-12",1681427855.66,"2013-04-12T23:17:35.66"],[214,"01-701-1383",19393,"2013-02-04",1675625042.59,"2013-02-04T19:24:02.59",19576,"2013-08-06",1691387439.64,"2013-08-06T05:50:39.64",19440,"2013-03-23",1679686289.98,"2013-03-23T19:31:29.98"],[215,"01-701-1383",19393,"2013-02-04",1675589349.79,"2013-02-04T09:29:09.79",19576,"2013-08-06",1691392971.94,"2013-08-06T07:22:51.94",19460,"2013-04-12",1681361128.94,"2013-04-12T04:45:28.94"],[216,"01-701-1383",19393,"2013-02-04",1675628331.24,"2013-02-04T20:18:51.24",19576,"2013-08-06",1691440393.38,"2013-08-06T20:33:13.38",19485,"2013-05-07",1683531830.11,"2013-05-07T07:43:50.11"],[217,"01-701-1383",19393,"2013-02-04",1675606186.73,"2013-02-04T14:09:46.73",19576,"2013-08-06",1691384787.97,"2013-08-06T05:06:27.97",19533,"2013-06-24",1687653487.31,"2013-06-24T00:38:07.31"],[218,"01-701-1383",19393,"2013-02-04",1675613385.28,"2013-02-04T16:09:45.28",19576,"2013-08-06",1691421166.71,"2013-08-06T15:12:46.71",19533,"2013-06-24",1687682445.45,"2013-06-24T08:40:45.45"],[219,"01-701-1383",19393,"2013-02-04",1675621443.61,"2013-02-04T18:24:03.61",19576,"2013-08-06",1691398018.47,"2013-08-06T08:46:58.47",19556,"2013-07-17",1689712235.14,"2013-07-17T20:30:35.14"],[220,"01-701-1387",19794,"2014-03-12",1710223969.13,"2014-03-12T06:12:49.13",19807,"2014-03-25",1711411050.6,"2014-03-25T23:57:30.60",19800,"2014-03-18",1710765598.81,"2014-03-18T12:39:58.81"],[221,"01-701-1387",19794,"2014-03-12",1710232052.44,"2014-03-12T08:27:32.44",19807,"2014-03-25",1711400052.48,"2014-03-25T20:54:12.48",19800,"2014-03-18",1710787861.25,"2014-03-18T18:51:01.25"],[222,"01-701-1392",19294,"2012-10-28",1667022326.64,"2012-10-28T05:45:26.64",19476,"2013-04-28",1682763202.45,"2013-04-28T10:13:22.45",19433,"2013-03-16",1679020169.57,"2013-03-16T02:29:29.57"],[223,"01-701-1392",19294,"2012-10-28",1667069071.25,"2012-10-28T18:44:31.25",19476,"2013-04-28",1682775167.34,"2013-04-28T13:32:47.34",19433,"2013-03-16",1679060891.96,"2013-03-16T13:48:11.96"],[224,"01-701-1415",19624,"2013-09-23",1695550325.6,"2013-09-23T10:12:05.60",19806,"2014-03-24",1711245699.17,"2014-03-24T02:01:39.17",19652,"2013-10-21",1697969667.95,"2013-10-21T10:14:27.95"],[225,"01-701-1415",19624,"2013-09-23",1695519031.4,"2013-09-23T01:30:31.40",19806,"2014-03-24",1711282153.76,"2014-03-24T12:09:13.76",19652,"2013-10-21",1697992285.28,"2013-10-21T16:31:25.28"],[226,"01-701-1415",19624,"2013-09-23",1695599681.15,"2013-09-23T23:54:41.15",19806,"2014-03-24",1711267510.72,"2014-03-24T08:05:10.72",19694,"2013-12-02",1701571332.9,"2013-12-02T02:42:12.90"],[227,"01-701-1415",19624,"2013-09-23",1695577050.12,"2013-09-23T17:37:30.12",19806,"2014-03-24",1711299448.92,"2014-03-24T16:57:28.92",19744,"2014-01-21",1705889315.96,"2014-01-21T02:08:35.96"],[228,"01-701-1415",19624,"2013-09-23",1695530882.94,"2013-09-23T04:48:02.94",19806,"2014-03-24",1711311745.93,"2014-03-24T20:22:25.93",19744,"2014-01-21",1705903822,"2014-01-21T06:10:22.00"],[229,"01-701-1415",19624,"2013-09-23",1695519729.43,"2013-09-23T01:42:09.43",19806,"2014-03-24",1711280573.25,"2014-03-24T11:42:53.25",19791,"2014-03-09",1710003277.94,"2014-03-09T16:54:37.94"],[230,"01-701-1442",19657,"2013-10-26",1698369678.2,"2013-10-26T01:21:18.20",19839,"2014-04-26",1714110601.56,"2014-04-26T05:50:01.56",19733,"2014-01-10",1704962722.25,"2014-01-10T08:45:22.25"],[231,"01-701-1444",19363,"2013-01-05",1672970557.59,"2013-01-05T02:02:37.59",19401,"2013-02-12",1676285218.17,"2013-02-12T10:46:58.17",19377,"2013-01-19",1674227859.64,"2013-01-19T15:17:39.64"],[232,"01-701-1444",19363,"2013-01-05",1672981279.56,"2013-01-05T05:01:19.56",19401,"2013-02-12",1676307848.1,"2013-02-12T17:04:08.10",19377,"2013-01-19",1674254095.42,"2013-01-19T22:34:55.42"],[233,"01-701-1444",19363,"2013-01-05",1673037415.89,"2013-01-05T20:36:55.89",19401,"2013-02-12",1676308889.63,"2013-02-12T17:21:29.63",19377,"2013-01-19",1674254449.08,"2013-01-19T22:40:49.08"],[234,"01-701-1444",19363,"2013-01-05",1672973694.11,"2013-01-05T02:54:54.11",19401,"2013-02-12",1676289092.34,"2013-02-12T11:51:32.34",19377,"2013-01-19",1674208828.92,"2013-01-19T10:00:28.92"],[235,"01-701-1444",19363,"2013-01-05",1672991173.02,"2013-01-05T07:46:13.02",19401,"2013-02-12",1676309829.8,"2013-02-12T17:37:09.80",19377,"2013-01-19",1674214529.16,"2013-01-19T11:35:29.16"],[236,"01-701-1444",19363,"2013-01-05",1672963663.77,"2013-01-05T00:07:43.77",19401,"2013-02-12",1676300075.28,"2013-02-12T14:54:35.28",19393,"2013-02-04",1675578634.05,"2013-02-04T06:30:34.05"],[237,"01-701-1444",19363,"2013-01-05",1673010716.68,"2013-01-05T13:11:56.68",19401,"2013-02-12",1676281843.94,"2013-02-12T09:50:43.94",19393,"2013-02-04",1675615634.91,"2013-02-04T16:47:14.91"],[238,"01-701-1444",19363,"2013-01-05",1673039804.4,"2013-01-05T21:16:44.40",19401,"2013-02-12",1676271791,"2013-02-12T07:03:11.00",19397,"2013-02-08",1675978574.43,"2013-02-08T21:36:14.43"],[239,"01-702-1082",19565,"2013-07-26",1690483725.46,"2013-07-26T18:48:45.46",19644,"2013-10-13",1697312479.38,"2013-10-13T19:41:19.38",19546,"2013-07-07",1688823289.12,"2013-07-07T13:34:49.12"],[240,"01-702-1082",19565,"2013-07-26",1690461217.53,"2013-07-26T12:33:37.53",19644,"2013-10-13",1697289141.62,"2013-10-13T13:12:21.62",19546,"2013-07-07",1688842570.84,"2013-07-07T18:56:10.84"],[241,"01-702-1082",19565,"2013-07-26",1690486935.83,"2013-07-26T19:42:15.83",19644,"2013-10-13",1697321924.96,"2013-10-13T22:18:44.96",19546,"2013-07-07",1688854442.81,"2013-07-07T22:14:02.81"],[242,"01-702-1082",19565,"2013-07-26",1690455205.64,"2013-07-26T10:53:25.64",19644,"2013-10-13",1697283875.83,"2013-10-13T11:44:35.83",19546,"2013-07-07",1688801014.06,"2013-07-07T07:23:34.06"],[243,"01-702-1082",19565,"2013-07-26",1690455766.75,"2013-07-26T11:02:46.75",19644,"2013-10-13",1697251270.43,"2013-10-13T02:41:10.43",19546,"2013-07-07",1688860094.71,"2013-07-07T23:48:14.71"],[244,"01-702-1082",19565,"2013-07-26",1690495733.34,"2013-07-26T22:08:53.34",19644,"2013-10-13",1697312416.02,"2013-10-13T19:40:16.02",19546,"2013-07-07",1688854142.09,"2013-07-07T22:09:02.09"],[245,"01-702-1082",19565,"2013-07-26",1690455176.78,"2013-07-26T10:52:56.78",19644,"2013-10-13",1697296365.12,"2013-10-13T15:12:45.12",19603,"2013-09-02",1693720943.28,"2013-09-02T06:02:23.28"],[246,"01-702-1082",19565,"2013-07-26",1690444593.74,"2013-07-26T07:56:33.74",19644,"2013-10-13",1697300286.47,"2013-10-13T16:18:06.47",19603,"2013-09-02",1693710788.72,"2013-09-02T03:13:08.72"],[247,"01-702-1082",19565,"2013-07-26",1690479817.44,"2013-07-26T17:43:37.44",19644,"2013-10-13",1697254060.16,"2013-10-13T03:27:40.16",19610,"2013-09-09",1694307113.96,"2013-09-09T00:51:53.96"],[248,"01-702-1082",19565,"2013-07-26",1690437012.66,"2013-07-26T05:50:12.66",19644,"2013-10-13",1697304819.65,"2013-10-13T17:33:39.65",19643,"2013-10-12",1697181838.35,"2013-10-12T07:23:58.35"],[249,"01-703-1042",19419,"2013-03-02",1677880410.25,"2013-03-02T21:53:30.25",19601,"2013-08-31",1693610950.91,"2013-08-31T23:29:10.91",19421,"2013-03-04",1678041203.87,"2013-03-04T18:33:23.87"],[250,"01-703-1042",19419,"2013-03-02",1677826581.05,"2013-03-02T06:56:21.05",19601,"2013-08-31",1693598216.94,"2013-08-31T19:56:56.94",19422,"2013-03-05",1678121480.18,"2013-03-05T16:51:20.18"],[251,"01-703-1076",19656,"2013-10-25",1698355815.33,"2013-10-25T21:30:15.33",19716,"2013-12-24",1703490092.91,"2013-12-24T07:41:32.91",19678,"2013-11-16",1700184318.42,"2013-11-16T01:25:18.42"],[252,"01-703-1076",19656,"2013-10-25",1698286206.97,"2013-10-25T02:10:06.97",19716,"2013-12-24",1703546171.99,"2013-12-24T23:16:11.99",19682,"2013-11-20",1700527325.93,"2013-11-20T00:42:05.93"],[253,"01-703-1076",19656,"2013-10-25",1698315425.04,"2013-10-25T10:17:05.04",19716,"2013-12-24",1703542204.5,"2013-12-24T22:10:04.50",null,".",null,"."],[254,"01-703-1076",19656,"2013-10-25",1698329684.51,"2013-10-25T14:14:44.51",19716,"2013-12-24",1703510538.76,"2013-12-24T13:22:18.76",19685,"2013-11-23",1700808665.65,"2013-11-23T06:51:05.65"],[255,"01-703-1076",19656,"2013-10-25",1698305510.73,"2013-10-25T07:31:50.73",19716,"2013-12-24",1703470425.44,"2013-12-24T02:13:45.44",19685,"2013-11-23",1700850361.05,"2013-11-23T18:26:01.05"],[256,"01-703-1076",19656,"2013-10-25",1698352803.5,"2013-10-25T20:40:03.50",19716,"2013-12-24",1703538751.91,"2013-12-24T21:12:31.91",19687,"2013-11-25",1700984285.16,"2013-11-25T07:38:05.16"],[257,"01-703-1076",19656,"2013-10-25",1698293238.42,"2013-10-25T04:07:18.42",19716,"2013-12-24",1703546067.9,"2013-12-24T23:14:27.90",19685,"2013-11-23",1700868602.84,"2013-11-23T23:30:02.84"],[258,"01-703-1086",19238,"2012-09-02",1662172344.89,"2012-09-02T02:32:24.89",19331,"2012-12-04",1670226536.55,"2012-12-04T07:48:56.55",19249,"2012-09-13",1663130865.97,"2012-09-13T04:47:45.97"],[259,"01-703-1086",19238,"2012-09-02",1662238616.28,"2012-09-02T20:56:56.28",19331,"2012-12-04",1670226745.2,"2012-12-04T07:52:25.20",19249,"2012-09-13",1663167895.11,"2012-09-13T15:04:55.11"],[260,"01-703-1086",19238,"2012-09-02",1662230640.43,"2012-09-02T18:44:00.43",19331,"2012-12-04",1670281585.29,"2012-12-04T23:06:25.29",19249,"2012-09-13",1663114304.22,"2012-09-13T00:11:44.22"],[261,"01-703-1086",19238,"2012-09-02",1662204831.64,"2012-09-02T11:33:51.64",19331,"2012-12-04",1670207492.77,"2012-12-04T02:31:32.77",19275,"2012-10-09",1665412067.94,"2012-10-09T14:27:47.94"],[262,"01-703-1086",19238,"2012-09-02",1662174812.47,"2012-09-02T03:13:32.47",19331,"2012-12-04",1670211032.18,"2012-12-04T03:30:32.18",19275,"2012-10-09",1665391133.19,"2012-10-09T08:38:53.19"],[263,"01-703-1086",19238,"2012-09-02",1662177465.88,"2012-09-02T03:57:45.88",19331,"2012-12-04",1670252680.15,"2012-12-04T15:04:40.15",19249,"2012-09-13",1663162553.34,"2012-09-13T13:35:53.34"],[264,"01-703-1100",19430,"2013-03-13",1678799702.7,"2013-03-13T13:15:02.70",19615,"2013-09-14",1694758242.49,"2013-09-14T06:10:42.49",19453,"2013-04-05",1680792522.91,"2013-04-05T14:48:42.91"],[265,"01-703-1100",19430,"2013-03-13",1678770091.44,"2013-03-13T05:01:31.44",19615,"2013-09-14",1694769242.62,"2013-09-14T09:14:02.62",19453,"2013-04-05",1680780937.13,"2013-04-05T11:35:37.13"],[266,"01-703-1100",19430,"2013-03-13",1678786629.65,"2013-03-13T09:37:09.65",19615,"2013-09-14",1694763600.35,"2013-09-14T07:40:00.35",19453,"2013-04-05",1680739280.78,"2013-04-05T00:01:20.78"],[267,"01-703-1100",19430,"2013-03-13",1678827323.38,"2013-03-13T20:55:23.38",19615,"2013-09-14",1694792526.41,"2013-09-14T15:42:06.41",19473,"2013-04-25",1682540711.15,"2013-04-25T20:25:11.15"],[268,"01-703-1100",19430,"2013-03-13",1678765631.61,"2013-03-13T03:47:11.61",19615,"2013-09-14",1694810744.4,"2013-09-14T20:45:44.40",19505,"2013-05-27",1685234608.53,"2013-05-27T00:43:28.53"],[269,"01-703-1100",19430,"2013-03-13",1678802379.24,"2013-03-13T13:59:39.24",19615,"2013-09-14",1694786765.76,"2013-09-14T14:06:05.76",19417,"2013-02-28",1677692261.41,"2013-02-28T17:37:41.41"],[270,"01-703-1100",19430,"2013-03-13",1678754350.65,"2013-03-13T00:39:10.65",19615,"2013-09-14",1694739806.88,"2013-09-14T01:03:26.88",19556,"2013-07-17",1689715905.78,"2013-07-17T21:31:45.78"],[271,"01-703-1100",19430,"2013-03-13",1678798680.77,"2013-03-13T12:58:00.77",19615,"2013-09-14",1694789854.35,"2013-09-14T14:57:34.35",19417,"2013-02-28",1677687250.44,"2013-02-28T16:14:10.44"],[272,"01-703-1100",19430,"2013-03-13",1678785566.56,"2013-03-13T09:19:26.56",19615,"2013-09-14",1694779076.3,"2013-09-14T11:57:56.30",19556,"2013-07-17",1689679191.82,"2013-07-17T11:19:51.82"],[273,"01-703-1119",19409,"2013-02-20",1676952190.32,"2013-02-20T04:03:10.32",19522,"2013-06-13",1686785705.6,"2013-06-13T23:35:05.60",19433,"2013-03-16",1679070071.78,"2013-03-16T16:21:11.78"],[274,"01-703-1119",19409,"2013-02-20",1676939553.93,"2013-02-20T00:32:33.93",19522,"2013-06-13",1686761821.97,"2013-06-13T16:57:01.97",19433,"2013-03-16",1679012760.73,"2013-03-16T00:26:00.73"],[275,"01-703-1119",19409,"2013-02-20",1676947668.54,"2013-02-20T02:47:48.54",19522,"2013-06-13",1686757461.44,"2013-06-13T15:44:21.44",19482,"2013-05-04",1683300105.76,"2013-05-04T15:21:45.76"],[276,"01-703-1119",19409,"2013-02-20",1676996013.95,"2013-02-20T16:13:33.95",19522,"2013-06-13",1686767932.45,"2013-06-13T18:38:52.45",19482,"2013-05-04",1683310360.03,"2013-05-04T18:12:40.03"],[277,"01-703-1175",19712,"2013-12-20",1703166924.7,"2013-12-20T13:55:24.70",19718,"2013-12-26",1703707153.76,"2013-12-26T19:59:13.76",19710,"2013-12-18",1702944875.79,"2013-12-18T00:14:35.79"],[278,"01-703-1182",19648,"2013-10-17",1697667987.81,"2013-10-17T22:26:27.81",19703,"2013-12-11",1702414615.05,"2013-12-11T20:56:55.05",19662,"2013-10-31",1698845698.98,"2013-10-31T13:34:58.98"],[279,"01-703-1182",19648,"2013-10-17",1697669654.78,"2013-10-17T22:54:14.78",19703,"2013-12-11",1702367316.76,"2013-12-11T07:48:36.76",19662,"2013-10-31",1698876389.04,"2013-10-31T22:06:29.04"],[280,"01-703-1182",19648,"2013-10-17",1697604051.51,"2013-10-17T04:40:51.51",19703,"2013-12-11",1702342989.7,"2013-12-11T01:03:09.70",19684,"2013-11-22",1700708658.13,"2013-11-22T03:04:18.13"],[281,"01-703-1182",19648,"2013-10-17",1697590893.6,"2013-10-17T01:01:33.60",19703,"2013-12-11",1702371201.91,"2013-12-11T08:53:21.91",19684,"2013-11-22",1700777811.02,"2013-11-22T22:16:51.02"],[282,"01-703-1210",19433,"2013-03-16",1679061756.89,"2013-03-16T14:02:36.89",19607,"2013-09-06",1694078210.24,"2013-09-06T09:16:50.24",19450,"2013-04-02",1680542882.81,"2013-04-02T17:28:02.81"],[283,"01-703-1210",19433,"2013-03-16",1679046631.61,"2013-03-16T09:50:31.61",19607,"2013-09-06",1694048237.12,"2013-09-06T00:57:17.12",19482,"2013-05-04",1683259516.28,"2013-05-04T04:05:16.28"],[284,"01-703-1210",19433,"2013-03-16",1679063251.72,"2013-03-16T14:27:31.72",19607,"2013-09-06",1694119699.78,"2013-09-06T20:48:19.78",19482,"2013-05-04",1683273482.78,"2013-05-04T07:58:02.78"],[285,"01-703-1258",19194,"2012-07-20",1658391893.84,"2012-07-20T08:24:53.84",19369,"2013-01-11",1673500233.8,"2013-01-11T05:10:33.80",19216,"2012-08-11",1660268222.07,"2012-08-11T01:37:02.07"],[286,"01-703-1258",19194,"2012-07-20",1658388574.76,"2012-07-20T07:29:34.76",19369,"2013-01-11",1673562138.21,"2013-01-11T22:22:18.21",null,".",null,"."],[287,"01-703-1258",19194,"2012-07-20",1658391233.93,"2012-07-20T08:13:53.93",19369,"2013-01-11",1673530416.11,"2013-01-11T13:33:36.11",19216,"2012-08-11",1660291880.35,"2012-08-11T08:11:20.35"],[288,"01-703-1258",19194,"2012-07-20",1658411945.44,"2012-07-20T13:59:05.44",19369,"2013-01-11",1673554225.52,"2013-01-11T20:10:25.52",19240,"2012-09-04",1662356629.72,"2012-09-04T05:43:49.72"],[289,"01-703-1258",19194,"2012-07-20",1658418425.76,"2012-07-20T15:47:05.76",19369,"2013-01-11",1673522063.36,"2013-01-11T11:14:23.36",null,".",null,"."],[290,"01-703-1258",19194,"2012-07-20",1658443171.16,"2012-07-20T22:39:31.16",19369,"2013-01-11",1673523661.4,"2013-01-11T11:41:01.40",19240,"2012-09-04",1662352154.13,"2012-09-04T04:29:14.13"],[291,"01-703-1258",19194,"2012-07-20",1658375317.24,"2012-07-20T03:48:37.24",19369,"2013-01-11",1673499365.21,"2013-01-11T04:56:05.21",19240,"2012-09-04",1662341394.42,"2012-09-04T01:29:54.42"],[292,"01-703-1295",19683,"2013-11-21",1700646273.3,"2013-11-21T09:44:33.30",19832,"2014-04-19",1713495476.32,"2014-04-19T02:57:56.32",19720,"2013-12-28",1703878238.21,"2013-12-28T19:30:38.21"],[293,"01-703-1299",19248,"2012-09-12",1663068116.7,"2012-09-12T11:21:56.70",19430,"2013-03-13",1678810198.9,"2013-03-13T16:09:58.90",19263,"2012-09-27",1664366380.95,"2012-09-27T11:59:40.95"],[294,"01-703-1299",19248,"2012-09-12",1663033757.93,"2012-09-12T01:49:17.93",19430,"2013-03-13",1678759464.38,"2013-03-13T02:04:24.38",19263,"2012-09-27",1664360024.27,"2012-09-27T10:13:44.27"],[295,"01-703-1299",19248,"2012-09-12",1663038602.47,"2012-09-12T03:10:02.47",19430,"2013-03-13",1678803381.1,"2013-03-13T14:16:21.10",null,".",null,"."],[296,"01-703-1299",19248,"2012-09-12",1663094738.93,"2012-09-12T18:45:38.93",19430,"2013-03-13",1678761111.94,"2013-03-13T02:31:51.94",19418,"2013-03-01",1677798981.49,"2013-03-01T23:16:21.49"],[297,"01-703-1299",19248,"2012-09-12",1663038116.87,"2012-09-12T03:01:56.87",19430,"2013-03-13",1678810212.31,"2013-03-13T16:10:12.31",19418,"2013-03-01",1677730726.99,"2013-03-01T04:18:46.99"],[298,"01-703-1299",19248,"2012-09-12",1663069591.55,"2012-09-12T11:46:31.55",19430,"2013-03-13",1678774118.5,"2013-03-13T06:08:38.50",19418,"2013-03-01",1677784310.72,"2013-03-01T19:11:50.72"],[299,"01-703-1299",19248,"2012-09-12",1663077642.11,"2012-09-12T14:00:42.11",19430,"2013-03-13",1678813592.31,"2013-03-13T17:06:32.31",19418,"2013-03-01",1677778381.69,"2013-03-01T17:33:01.69"],[300,"01-703-1299",19248,"2012-09-12",1663071939.39,"2012-09-12T12:25:39.39",19430,"2013-03-13",1678800587.61,"2013-03-13T13:29:47.61",19430,"2013-03-13",1678828545,"2013-03-13T21:15:45.00"],[301,"01-703-1335",19799,"2014-03-17",1710682275.94,"2014-03-17T13:31:15.94",19850,"2014-05-07",1715115851.82,"2014-05-07T21:04:11.82",19797,"2014-03-15",1710521415.85,"2014-03-15T16:50:15.85"],[302,"01-703-1335",19799,"2014-03-17",1710642351.62,"2014-03-17T02:25:51.62",19850,"2014-05-07",1715121383.41,"2014-05-07T22:36:23.41",19797,"2014-03-15",1710470184.3,"2014-03-15T02:36:24.30"],[303,"01-703-1403",19339,"2012-12-12",1670894975.19,"2012-12-12T01:29:35.19",19340,"2012-12-13",1671038318.13,"2012-12-13T17:18:38.13",19339,"2012-12-12",1670960118.11,"2012-12-12T19:35:18.11"],[304,"01-703-1403",19339,"2012-12-12",1670961381.38,"2012-12-12T19:56:21.38",19340,"2012-12-13",1671039682.59,"2012-12-13T17:41:22.59",19340,"2012-12-13",1671055298.06,"2012-12-13T22:01:38.06"],[305,"01-703-1403",19339,"2012-12-12",1670950804.98,"2012-12-12T17:00:04.98",19340,"2012-12-13",1670982948.44,"2012-12-13T01:55:48.44",19340,"2012-12-13",1671039510.6,"2012-12-13T17:38:30.60"],[306,"01-703-1403",19339,"2012-12-12",1670954784.24,"2012-12-12T18:06:24.24",19340,"2012-12-13",1670998263.56,"2012-12-13T06:11:03.56",19342,"2012-12-15",1671183636.1,"2012-12-15T09:40:36.10"],[307,"01-703-1403",19339,"2012-12-12",1670951487.68,"2012-12-12T17:11:27.68",19340,"2012-12-13",1670999600.14,"2012-12-13T06:33:20.14",19339,"2012-12-12",1670916021.14,"2012-12-12T07:20:21.14"],[308,"01-703-1439",19794,"2014-03-12",1710209022.78,"2014-03-12T02:03:42.78",19977,"2014-09-11",1726033737.58,"2014-09-11T05:48:57.58",19837,"2014-04-24",1713939875.85,"2014-04-24T06:24:35.85"],[309,"01-703-1439",19794,"2014-03-12",1710203755.75,"2014-03-12T00:35:55.75",19977,"2014-09-11",1726047526.44,"2014-09-11T09:38:46.44",19837,"2014-04-24",1713929970.22,"2014-04-24T03:39:30.22"],[310,"01-704-1008",19371,"2013-01-13",1673659908.32,"2013-01-13T01:31:48.32",19410,"2013-02-21",1677085682.41,"2013-02-21T17:08:02.41",19388,"2013-01-30",1675204588.81,"2013-01-30T22:36:28.81"],[311,"01-704-1008",19371,"2013-01-13",1673705289.65,"2013-01-13T14:08:09.65",19410,"2013-02-21",1677080093.8,"2013-02-21T15:34:53.80",19410,"2013-02-21",1677102107.06,"2013-02-21T21:41:47.06"],[312,"01-704-1008",19371,"2013-01-13",1673672289.02,"2013-01-13T04:58:09.02",19410,"2013-02-21",1677057460.13,"2013-02-21T09:17:40.13",19414,"2013-02-25",1677405787.85,"2013-02-25T10:03:07.85"],[313,"01-704-1009",19597,"2013-08-27",1693262327.37,"2013-08-27T22:38:47.37",19626,"2013-09-25",1695728223.91,"2013-09-25T11:37:03.91",19606,"2013-09-05",1694039258.63,"2013-09-05T22:27:38.63"],[314,"01-704-1009",19597,"2013-08-27",1693182058.86,"2013-08-27T00:20:58.86",19626,"2013-09-25",1695728918.85,"2013-09-25T11:48:38.85",19606,"2013-09-05",1694011096.69,"2013-09-05T14:38:16.69"],[315,"01-704-1009",19597,"2013-08-27",1693213060.08,"2013-08-27T08:57:40.08",19626,"2013-09-25",1695723552.08,"2013-09-25T10:19:12.08",19615,"2013-09-14",1694756486.22,"2013-09-14T05:41:26.22"],[316,"01-704-1009",19597,"2013-08-27",1693223150.26,"2013-08-27T11:45:50.26",19626,"2013-09-25",1695732212.05,"2013-09-25T12:43:32.05",19606,"2013-09-05",1693997208.31,"2013-09-05T10:46:48.31"],[317,"01-704-1009",19597,"2013-08-27",1693263801.73,"2013-08-27T23:03:21.73",19626,"2013-09-25",1695741025.77,"2013-09-25T15:10:25.77",19618,"2013-09-17",1695075533.56,"2013-09-17T22:18:53.56"],[318,"01-704-1009",19597,"2013-08-27",1693207131.53,"2013-08-27T07:18:51.53",19626,"2013-09-25",1695760808.93,"2013-09-25T20:40:08.93",19623,"2013-09-22",1695440427.28,"2013-09-22T03:40:27.28"],[319,"01-704-1010",19775,"2014-02-21",1708607206.55,"2014-02-21T13:06:46.55",19912,"2014-07-08",1720402584.32,"2014-07-08T01:36:24.32",19781,"2014-02-27",1709094154.63,"2014-02-27T04:22:34.63"],[320,"01-704-1010",19775,"2014-02-21",1708586636.62,"2014-02-21T07:23:56.62",19912,"2014-07-08",1720422825.94,"2014-07-08T07:13:45.94",19909,"2014-07-05",1720223305.61,"2014-07-05T23:48:25.61"],[321,"01-704-1010",19775,"2014-02-21",1708590129.81,"2014-02-21T08:22:09.81",19912,"2014-07-08",1720400654.14,"2014-07-08T01:04:14.14",19909,"2014-07-05",1720197063.57,"2014-07-05T16:31:03.57"],[322,"01-704-1010",19775,"2014-02-21",1708633207.29,"2014-02-21T20:20:07.29",19912,"2014-07-08",1720421373.15,"2014-07-08T06:49:33.15",19910,"2014-07-06",1720283553.64,"2014-07-06T16:32:33.64"],[323,"01-704-1010",19775,"2014-02-21",1708615192.28,"2014-02-21T15:19:52.28",19912,"2014-07-08",1720441179.11,"2014-07-08T12:19:39.11",19910,"2014-07-06",1720308854.73,"2014-07-06T23:34:14.73"],[324,"01-704-1010",19775,"2014-02-21",1708627949.47,"2014-02-21T18:52:29.47",19912,"2014-07-08",1720416430.74,"2014-07-08T05:27:10.74",19910,"2014-07-06",1720251024.61,"2014-07-06T07:30:24.61"],[325,"01-704-1010",19775,"2014-02-21",1708567863.92,"2014-02-21T02:11:03.92",19912,"2014-07-08",1720414045.77,"2014-07-08T04:47:25.77",19910,"2014-07-06",1720271373.38,"2014-07-06T13:09:33.38"],[326,"01-704-1017",19637,"2013-10-06",1696711731.23,"2013-10-06T20:48:51.23",19680,"2013-11-18",1700366790.59,"2013-11-18T04:06:30.59",19650,"2013-10-19",1697812001.06,"2013-10-19T14:26:41.06"],[327,"01-704-1017",19637,"2013-10-06",1696648519.16,"2013-10-06T03:15:19.16",19680,"2013-11-18",1700413231.02,"2013-11-18T17:00:31.02",19650,"2013-10-19",1697761977,"2013-10-19T00:32:57.00"],[328,"01-704-1017",19637,"2013-10-06",1696719158,"2013-10-06T22:52:38.00",19680,"2013-11-18",1700363352.49,"2013-11-18T03:09:12.49",19663,"2013-11-01",1698967344.69,"2013-11-01T23:22:24.69"],[329,"01-704-1017",19637,"2013-10-06",1696719813.95,"2013-10-06T23:03:33.95",19680,"2013-11-18",1700404448.11,"2013-11-18T14:34:08.11",19663,"2013-11-01",1698893960.94,"2013-11-01T02:59:20.94"],[330,"01-704-1017",19637,"2013-10-06",1696651365.25,"2013-10-06T04:02:45.25",19680,"2013-11-18",1700398914.35,"2013-11-18T13:01:54.35",19667,"2013-11-05",1699282232.01,"2013-11-05T14:50:32.01"],[331,"01-704-1017",19637,"2013-10-06",1696718545.37,"2013-10-06T22:42:25.37",19680,"2013-11-18",1700363572.66,"2013-11-18T03:12:52.66",19667,"2013-11-05",1699250871.78,"2013-11-05T06:07:51.78"],[332,"01-704-1017",19637,"2013-10-06",1696668066.84,"2013-10-06T08:41:06.84",19680,"2013-11-18",1700405646.51,"2013-11-18T14:54:06.51",19667,"2013-11-05",1699272752.72,"2013-11-05T12:12:32.72"],[333,"01-704-1017",19637,"2013-10-06",1696674341.74,"2013-10-06T10:25:41.74",19680,"2013-11-18",1700409213.68,"2013-11-18T15:53:33.68",19667,"2013-11-05",1699309732.23,"2013-11-05T22:28:52.23"],[334,"01-704-1025",19628,"2013-09-27",1695927613.45,"2013-09-27T19:00:13.45",19655,"2013-10-24",1698248609.85,"2013-10-24T15:43:29.85",19629,"2013-09-28",1696028811.76,"2013-09-28T23:06:51.76"],[335,"01-704-1025",19628,"2013-09-27",1695928482.25,"2013-09-27T19:14:42.25",19655,"2013-10-24",1698269814.25,"2013-10-24T21:36:54.25",19629,"2013-09-28",1695996363.36,"2013-09-28T14:06:03.36"],[336,"01-704-1025",19628,"2013-09-27",1695905763.53,"2013-09-27T12:56:03.53",19655,"2013-10-24",1698205586.65,"2013-10-24T03:46:26.65",19642,"2013-10-11",1697084208.81,"2013-10-11T04:16:48.81"],[337,"01-704-1025",19628,"2013-09-27",1695880517.86,"2013-09-27T05:55:17.86",19655,"2013-10-24",1698272002.65,"2013-10-24T22:13:22.65",19656,"2013-10-25",1698344657.63,"2013-10-25T18:24:17.63"],[338,"01-704-1025",19628,"2013-09-27",1695921451.46,"2013-09-27T17:17:31.46",19655,"2013-10-24",1698216241.3,"2013-10-24T06:44:01.30",19642,"2013-10-11",1697081197.91,"2013-10-11T03:26:37.91"],[339,"01-704-1025",19628,"2013-09-27",1695904891.25,"2013-09-27T12:41:31.25",19655,"2013-10-24",1698248855.02,"2013-10-24T15:47:35.02",19656,"2013-10-25",1698306327.96,"2013-10-25T07:45:27.96"],[340,"01-704-1065",19655,"2013-10-24",1698200655.69,"2013-10-24T02:24:15.69",19714,"2013-12-22",1703296911.94,"2013-12-22T02:01:51.94",19657,"2013-10-26",1698442954.42,"2013-10-26T21:42:34.42"],[341,"01-704-1065",19655,"2013-10-24",1698249214.56,"2013-10-24T15:53:34.56",19714,"2013-12-22",1703317669.64,"2013-12-22T07:47:49.64",19658,"2013-10-27",1698465088.09,"2013-10-27T03:51:28.09"],[342,"01-704-1065",19655,"2013-10-24",1698221622.65,"2013-10-24T08:13:42.65",19714,"2013-12-22",1703349109.69,"2013-12-22T16:31:49.69",19658,"2013-10-27",1698489069.21,"2013-10-27T10:31:09.21"],[343,"01-704-1065",19655,"2013-10-24",1698240377.93,"2013-10-24T13:26:17.93",19714,"2013-12-22",1703329441.04,"2013-12-22T11:04:01.04",19671,"2013-11-09",1699658305.34,"2013-11-09T23:18:25.34"],[344,"01-704-1065",19655,"2013-10-24",1698238828.16,"2013-10-24T13:00:28.16",19714,"2013-12-22",1703364606.3,"2013-12-22T20:50:06.30",19671,"2013-11-09",1699576325.76,"2013-11-09T00:32:05.76"],[345,"01-704-1065",19655,"2013-10-24",1698234122.18,"2013-10-24T11:42:02.18",19714,"2013-12-22",1703374991.78,"2013-12-22T23:43:11.78",19671,"2013-11-09",1699628580.82,"2013-11-09T15:03:00.82"],[346,"01-704-1065",19655,"2013-10-24",1698257502.14,"2013-10-24T18:11:42.14",19714,"2013-12-22",1703300713.64,"2013-12-22T03:05:13.64",19679,"2013-11-17",1700347586.18,"2013-11-17T22:46:26.18"],[347,"01-704-1065",19655,"2013-10-24",1698192625.79,"2013-10-24T00:10:25.79",19714,"2013-12-22",1703339757,"2013-12-22T13:55:57.00",19679,"2013-11-17",1700345680.26,"2013-11-17T22:14:40.26"],[348,"01-704-1065",19655,"2013-10-24",1698221214.17,"2013-10-24T08:06:54.17",19714,"2013-12-22",1703313290.33,"2013-12-22T06:34:50.33",19707,"2013-12-15",1702734083.86,"2013-12-15T13:41:23.86"],[349,"01-704-1065",19655,"2013-10-24",1698276140.71,"2013-10-24T23:22:20.71",19714,"2013-12-22",1703343080.04,"2013-12-22T14:51:20.04",19716,"2013-12-24",1703547422.75,"2013-12-24T23:37:02.75"],[350,"01-704-1074",19745,"2014-01-22",1706022347.4,"2014-01-22T15:05:47.40",19802,"2014-03-20",1710945128.1,"2014-03-20T14:32:08.10",19745,"2014-01-22",1706052272.95,"2014-01-22T23:24:32.95"],[351,"01-704-1074",19745,"2014-01-22",1706043284.61,"2014-01-22T20:54:44.61",19802,"2014-03-20",1710968870.29,"2014-03-20T21:07:50.29",19763,"2014-02-09",1707569245.12,"2014-02-09T12:47:25.12"],[352,"01-704-1093",19432,"2013-03-15",1678959895.77,"2013-03-15T09:44:55.77",19526,"2013-06-17",1687053360.51,"2013-06-17T01:56:00.51",19447,"2013-03-30",1680277392.84,"2013-03-30T15:43:12.84"],[353,"01-704-1093",19432,"2013-03-15",1678956456.88,"2013-03-15T08:47:36.88",19526,"2013-06-17",1687102773.46,"2013-06-17T15:39:33.46",19447,"2013-03-30",1680245725.65,"2013-03-30T06:55:25.65"],[354,"01-704-1093",19432,"2013-03-15",1678967088.4,"2013-03-15T11:44:48.40",19526,"2013-06-17",1687116257.49,"2013-06-17T19:24:17.49",19482,"2013-05-04",1683314004.22,"2013-05-04T19:13:24.22"],[355,"01-704-1093",19432,"2013-03-15",1678942255.5,"2013-03-15T04:50:55.50",19526,"2013-06-17",1687059796.93,"2013-06-17T03:43:16.93",19482,"2013-05-04",1683324597.19,"2013-05-04T22:09:57.19"],[356,"01-704-1114",19381,"2013-01-23",1674555560.4,"2013-01-23T10:19:20.40",19546,"2013-07-07",1688809132.13,"2013-07-07T09:38:52.13",19410,"2013-02-21",1677063405.23,"2013-02-21T10:56:45.23"],[357,"01-704-1114",19381,"2013-01-23",1674562715.21,"2013-01-23T12:18:35.21",19546,"2013-07-07",1688847759.78,"2013-07-07T20:22:39.78",19412,"2013-02-23",1677215037.24,"2013-02-23T05:03:57.24"],[358,"01-704-1114",19381,"2013-01-23",1674583553.21,"2013-01-23T18:05:53.21",19546,"2013-07-07",1688851711.17,"2013-07-07T21:28:31.17",19440,"2013-03-23",1679673199.67,"2013-03-23T15:53:19.67"],[359,"01-704-1114",19381,"2013-01-23",1674591295.04,"2013-01-23T20:14:55.04",19546,"2013-07-07",1688787626.37,"2013-07-07T03:40:26.37",19440,"2013-03-23",1679700251.1,"2013-03-23T23:24:11.10"],[360,"01-704-1114",19381,"2013-01-23",1674546837.66,"2013-01-23T07:53:57.66",19546,"2013-07-07",1688834594.54,"2013-07-07T16:43:14.54",19516,"2013-06-07",1686186841.42,"2013-06-07T01:14:01.42"],[361,"01-704-1120",19694,"2013-12-02",1701569670.87,"2013-12-02T02:14:30.87",19755,"2014-02-01",1706888633.79,"2014-02-01T15:43:53.79",19715,"2013-12-23",1703432943.68,"2013-12-23T15:49:03.68"],[362,"01-704-1120",19694,"2013-12-02",1701599193.23,"2013-12-02T10:26:33.23",19755,"2014-02-01",1706906986.82,"2014-02-01T20:49:46.82",19720,"2013-12-28",1703876859.9,"2013-12-28T19:07:39.90"],[363,"01-704-1120",19694,"2013-12-02",1701583945.46,"2013-12-02T06:12:25.46",19755,"2014-02-01",1706887020.04,"2014-02-01T15:17:00.04",19715,"2013-12-23",1703391131.87,"2013-12-23T04:12:11.87"],[364,"01-704-1120",19694,"2013-12-02",1701631925.07,"2013-12-02T19:32:05.07",19755,"2014-02-01",1706911632.09,"2014-02-01T22:07:12.09",19750,"2014-01-27",1706407416.88,"2014-01-27T02:03:36.88"],[365,"01-704-1120",19694,"2013-12-02",1701617391.93,"2013-12-02T15:29:51.93",19755,"2014-02-01",1706911343.87,"2014-02-01T22:02:23.87",19750,"2014-01-27",1706482973.27,"2014-01-27T23:02:53.27"],[366,"01-704-1120",19694,"2013-12-02",1701584668.77,"2013-12-02T06:24:28.77",19755,"2014-02-01",1706915038.89,"2014-02-01T23:03:58.89",19720,"2013-12-28",1703865449.48,"2013-12-28T15:57:29.48"],[367,"01-704-1135",19662,"2013-10-31",1698819867.38,"2013-10-31T06:24:27.38",19859,"2014-05-16",1715841826.44,"2014-05-16T06:43:46.44",19700,"2013-12-08",1702122218.04,"2013-12-08T11:43:38.04"],[368,"01-704-1135",19662,"2013-10-31",1698821412.43,"2013-10-31T06:50:12.43",19859,"2014-05-16",1715853607.49,"2014-05-16T10:00:07.49",19700,"2013-12-08",1702162088.92,"2013-12-08T22:48:08.92"],[369,"01-704-1164",19255,"2012-09-19",1663708632.65,"2012-09-19T21:17:12.65",19452,"2013-04-04",1680691232.76,"2013-04-04T10:40:32.76",19263,"2012-09-27",1664382441.73,"2012-09-27T16:27:21.73"],[370,"01-704-1164",19255,"2012-09-19",1663688578.28,"2012-09-19T15:42:58.28",19452,"2013-04-04",1680712562.84,"2013-04-04T16:36:02.84",19263,"2012-09-27",1664331352.6,"2012-09-27T02:15:52.60"],[371,"01-704-1164",19255,"2012-09-19",1663706907.86,"2012-09-19T20:48:27.86",19452,"2013-04-04",1680656116.56,"2013-04-04T00:55:16.56",19393,"2013-02-04",1675578406.24,"2013-02-04T06:26:46.24"],[372,"01-704-1218",19316,"2012-11-19",1668983513.13,"2012-11-19T22:31:53.13",19505,"2013-05-27",1685242531.53,"2013-05-27T02:55:31.53",19357,"2012-12-30",1672464304.18,"2012-12-30T05:25:04.18"],[373,"01-704-1241",19595,"2013-08-25",1693075514.94,"2013-08-25T18:45:14.94",19640,"2013-10-09",1696926454.86,"2013-10-09T08:27:34.86",19584,"2013-08-14",1692088593.61,"2013-08-14T08:36:33.61"],[374,"01-704-1241",19595,"2013-08-25",1693021754.59,"2013-08-25T03:49:14.59",19640,"2013-10-09",1696959939.43,"2013-10-09T17:45:39.43",19629,"2013-09-28",1695949776.66,"2013-09-28T01:09:36.66"],[375,"01-704-1266",19644,"2013-10-13",1697283801.55,"2013-10-13T11:43:21.55",19698,"2013-12-06",1701944058.82,"2013-12-06T10:14:18.82",19637,"2013-10-06",1696696299.45,"2013-10-06T16:31:39.45"],[376,"01-704-1266",19644,"2013-10-13",1697254599.95,"2013-10-13T03:36:39.95",19698,"2013-12-06",1701929863.38,"2013-12-06T06:17:43.38",19648,"2013-10-17",1697642921.71,"2013-10-17T15:28:41.71"],[377,"01-704-1266",19644,"2013-10-13",1697282263.93,"2013-10-13T11:17:43.93",19698,"2013-12-06",1701930310.17,"2013-12-06T06:25:10.17",19658,"2013-10-27",1698534774.05,"2013-10-27T23:12:54.05"],[378,"01-704-1266",19644,"2013-10-13",1697321247.65,"2013-10-13T22:07:27.65",19698,"2013-12-06",1701936840.7,"2013-12-06T08:14:00.70",19670,"2013-11-08",1699545505.99,"2013-11-08T15:58:25.99"],[379,"01-704-1266",19644,"2013-10-13",1697251066.17,"2013-10-13T02:37:46.17",19698,"2013-12-06",1701965070.71,"2013-12-06T16:04:30.71",19658,"2013-10-27",1698491423.61,"2013-10-27T11:10:23.61"],[380,"01-704-1266",19644,"2013-10-13",1697271833.4,"2013-10-13T08:23:53.40",19698,"2013-12-06",1701953200.83,"2013-12-06T12:46:40.83",19671,"2013-11-09",1699646225.8,"2013-11-09T19:57:05.80"],[381,"01-704-1266",19644,"2013-10-13",1697244410.45,"2013-10-13T00:46:50.45",19698,"2013-12-06",1701937841.63,"2013-12-06T08:30:41.63",19677,"2013-11-15",1700137380.68,"2013-11-15T12:23:00.68"],[382,"01-704-1266",19644,"2013-10-13",1697317650.5,"2013-10-13T21:07:30.50",19698,"2013-12-06",1701937524.3,"2013-12-06T08:25:24.30",19677,"2013-11-15",1700165143.39,"2013-11-15T20:05:43.39"],[383,"01-704-1266",19644,"2013-10-13",1697248247.02,"2013-10-13T01:50:47.02",19698,"2013-12-06",1701966168.91,"2013-12-06T16:22:48.91",19648,"2013-10-17",1697608515.77,"2013-10-17T05:55:15.77"],[384,"01-704-1266",19644,"2013-10-13",1697292457.18,"2013-10-13T14:07:37.18",19698,"2013-12-06",1701949813.01,"2013-12-06T11:50:13.01",19671,"2013-11-09",1699653919.98,"2013-11-09T22:05:19.98"],[385,"01-704-1266",19644,"2013-10-13",1697301400.41,"2013-10-13T16:36:40.41",19698,"2013-12-06",1701969828.78,"2013-12-06T17:23:48.78",19698,"2013-12-06",1701929787.81,"2013-12-06T06:16:27.81"],[386,"01-704-1266",19644,"2013-10-13",1697326649.1,"2013-10-13T23:37:29.10",19698,"2013-12-06",1701985751.61,"2013-12-06T21:49:11.61",19648,"2013-10-17",1697630587.28,"2013-10-17T12:03:07.28"],[387,"01-704-1266",19644,"2013-10-13",1697257876.16,"2013-10-13T04:31:16.16",19698,"2013-12-06",1701922320.31,"2013-12-06T04:12:00.31",19670,"2013-11-08",1699507122.01,"2013-11-08T05:18:42.01"],[388,"01-704-1266",19644,"2013-10-13",1697271812.76,"2013-10-13T08:23:32.76",19698,"2013-12-06",1701990417.78,"2013-12-06T23:06:57.78",19677,"2013-11-15",1700174619.35,"2013-11-15T22:43:39.35"],[389,"01-704-1266",19644,"2013-10-13",1697307772.53,"2013-10-13T18:22:52.53",19698,"2013-12-06",1701941521.43,"2013-12-06T09:32:01.43",19677,"2013-11-15",1700128374.59,"2013-11-15T09:52:54.59"],[390,"01-704-1266",19644,"2013-10-13",1697276822.98,"2013-10-13T09:47:02.98",19698,"2013-12-06",1701914347.35,"2013-12-06T01:59:07.35",19698,"2013-12-06",1701926978.79,"2013-12-06T05:29:38.79"],[391,"01-704-1323",19547,"2013-07-08",1688929222.18,"2013-07-08T19:00:22.18",19575,"2013-08-05",1691340816.35,"2013-08-05T16:53:36.35",19569,"2013-07-30",1690795449.23,"2013-07-30T09:24:09.23"],[392,"01-704-1323",19547,"2013-07-08",1688913669.73,"2013-07-08T14:41:09.73",19575,"2013-08-05",1691339073.14,"2013-08-05T16:24:33.14",19574,"2013-08-04",1691249910.9,"2013-08-04T15:38:30.90"],[393,"01-704-1323",19547,"2013-07-08",1688935800.15,"2013-07-08T20:50:00.15",19575,"2013-08-05",1691362912.54,"2013-08-05T23:01:52.54",19574,"2013-08-04",1691193804.54,"2013-08-04T00:03:24.54"],[394,"01-704-1323",19547,"2013-07-08",1688931995.43,"2013-07-08T19:46:35.43",19575,"2013-08-05",1691299039.42,"2013-08-05T05:17:19.42",19574,"2013-08-04",1691227152.35,"2013-08-04T09:19:12.35"],[395,"01-704-1325",19836,"2014-04-23",1713902347.75,"2014-04-23T19:59:07.75",19908,"2014-07-04",1720115078.34,"2014-07-04T17:44:38.34",19866,"2014-05-23",1716484952.48,"2014-05-23T17:22:32.48"],[396,"01-704-1325",19836,"2014-04-23",1713853207.15,"2014-04-23T06:20:07.15",19908,"2014-07-04",1720089519.81,"2014-07-04T10:38:39.81",19908,"2014-07-04",1720122083.06,"2014-07-04T19:41:23.06"],[397,"01-704-1332",19701,"2013-12-09",1702222201.4,"2013-12-09T15:30:01.40",19768,"2014-02-14",1707986302.05,"2014-02-14T08:38:22.05",19702,"2013-12-10",1702311583.27,"2013-12-10T16:19:43.27"],[398,"01-704-1332",19701,"2013-12-09",1702174592.35,"2013-12-09T02:16:32.35",19768,"2014-02-14",1708006056.8,"2014-02-14T14:07:36.80",19741,"2014-01-18",1705623851.1,"2014-01-18T00:24:11.10"],[399,"01-704-1332",19701,"2013-12-09",1702208267.56,"2013-12-09T11:37:47.56",19768,"2014-02-14",1707972010.26,"2014-02-14T04:40:10.26",19702,"2013-12-10",1702288563.98,"2013-12-10T09:56:03.98"],[400,"01-704-1332",19701,"2013-12-09",1702235738.02,"2013-12-09T19:15:38.02",19768,"2014-02-14",1708029547.66,"2014-02-14T20:39:07.66",19757,"2014-02-03",1707027960.57,"2014-02-03T06:26:00.57"],[401,"01-704-1332",19701,"2013-12-09",1702235231.39,"2013-12-09T19:07:11.39",19768,"2014-02-14",1708017105.05,"2014-02-14T17:11:45.05",19702,"2013-12-10",1702327769.72,"2013-12-10T20:49:29.72"],[402,"01-704-1332",19701,"2013-12-09",1702238024.72,"2013-12-09T19:53:44.72",19768,"2014-02-14",1708003486.26,"2014-02-14T13:24:46.26",19741,"2014-01-18",1705686835.68,"2014-01-18T17:53:55.68"],[403,"01-704-1351",19643,"2013-10-12",1697205595.55,"2013-10-12T13:59:55.55",19831,"2014-04-18",1713457292.74,"2014-04-18T16:21:32.74",19658,"2013-10-27",1698517209.86,"2013-10-27T18:20:09.86"],[404,"01-704-1351",19643,"2013-10-12",1697207630.86,"2013-10-12T14:33:50.86",19831,"2014-04-18",1713408798.57,"2014-04-18T02:53:18.57",19658,"2013-10-27",1698498312.69,"2013-10-27T13:05:12.69"],[405,"01-704-1351",19643,"2013-10-12",1697201804.39,"2013-10-12T12:56:44.39",19831,"2014-04-18",1713468850.57,"2014-04-18T19:34:10.57",19658,"2013-10-27",1698452151.03,"2013-10-27T00:15:51.03"],[406,"01-704-1351",19643,"2013-10-12",1697170066.75,"2013-10-12T04:07:46.75",19831,"2014-04-18",1713402902.88,"2014-04-18T01:15:02.88",19658,"2013-10-27",1698487542.48,"2013-10-27T10:05:42.48"],[407,"01-704-1388",19334,"2012-12-07",1670497571.24,"2012-12-07T11:06:11.24",19520,"2013-06-11",1686545971.8,"2013-06-11T04:59:31.80",19228,"2012-08-23",1661348017.34,"2012-08-23T13:33:37.34"],[408,"01-704-1435",19314,"2012-11-17",1668808450.63,"2012-11-17T21:54:10.63",19367,"2013-01-09",1673377946.57,"2013-01-09T19:12:26.57",19364,"2013-01-06",1673120082.24,"2013-01-06T19:34:42.24"],[409,"01-704-1445",19854,"2014-05-11",1715406614.01,"2014-05-11T05:50:14.01",20028,"2014-11-01",1730468655.94,"2014-11-01T13:44:15.94",20027,"2014-10-31",1730351685.19,"2014-10-31T05:14:45.19"],[410,"01-705-1031",19689,"2013-11-27",1701163901.62,"2013-11-27T09:31:41.62",19854,"2014-05-11",1715391199.59,"2014-05-11T01:33:19.59",19717,"2013-12-25",1703575343.74,"2013-12-25T07:22:23.74"],[411,"01-705-1059",19575,"2013-08-05",1691320696.24,"2013-08-05T11:18:16.24",19697,"2013-12-05",1701876305.65,"2013-12-05T15:25:05.65",19664,"2013-11-02",1699010506.91,"2013-11-02T11:21:46.91"],[412,"01-705-1186",19731,"2014-01-08",1704817848.39,"2014-01-08T16:30:48.39",19749,"2014-01-26",1706348916.88,"2014-01-26T09:48:36.88",19749,"2014-01-26",1706373724.93,"2014-01-26T16:42:04.93"],[413,"01-705-1199",19617,"2013-09-16",1694991758.36,"2013-09-16T23:02:38.36",19629,"2013-09-28",1695984228.2,"2013-09-28T10:43:48.20",19618,"2013-09-17",1695039197.9,"2013-09-17T12:13:17.90"],[414,"01-705-1199",19617,"2013-09-16",1694935579.14,"2013-09-16T07:26:19.14",19629,"2013-09-28",1696030924.21,"2013-09-28T23:42:04.21",19618,"2013-09-17",1695062306.87,"2013-09-17T18:38:26.87"],[415,"01-705-1280",19740,"2014-01-17",1705588203.63,"2014-01-17T14:30:03.63",19929,"2014-07-25",1721883625.83,"2014-07-25T05:00:25.83",19833,"2014-04-20",1713625956.66,"2014-04-20T15:12:36.66"],[416,"01-705-1281",19690,"2013-11-28",1701295819.71,"2013-11-28T22:10:19.71",19781,"2014-02-27",1709135774.52,"2014-02-27T15:56:14.52",19753,"2014-01-30",1706670785.59,"2014-01-30T03:13:05.59"],[417,"01-705-1281",19690,"2013-11-28",1701220653.22,"2013-11-28T01:17:33.22",19781,"2014-02-27",1709114620.62,"2014-02-27T10:03:40.62",19753,"2014-01-30",1706729547.32,"2014-01-30T19:32:27.32"],[418,"01-705-1281",19690,"2013-11-28",1701233466.01,"2013-11-28T04:51:06.01",19781,"2014-02-27",1709137300,"2014-02-27T16:21:40.00",19753,"2014-01-30",1706721241.82,"2014-01-30T17:14:01.82"],[419,"01-705-1292",19645,"2013-10-14",1697413097.85,"2013-10-14T23:38:17.85",19856,"2014-05-13",1715610912.05,"2014-05-13T14:35:12.05",19659,"2013-10-28",1698602232.12,"2013-10-28T17:57:12.12"],[420,"01-705-1292",19645,"2013-10-14",1697382732.45,"2013-10-14T15:12:12.45",19856,"2014-05-13",1715587209.24,"2014-05-13T08:00:09.24",19767,"2014-02-13",1707941245.9,"2014-02-13T20:07:25.90"],[421,"01-705-1303",19708,"2013-12-16",1702805126.51,"2013-12-16T09:25:26.51",19876,"2014-06-02",1717306822.44,"2014-06-02T05:40:22.44",19759,"2014-02-05",1707225851.91,"2014-02-05T13:24:11.91"],[422,"01-705-1303",19708,"2013-12-16",1702798667.03,"2013-12-16T07:37:47.03",19876,"2014-06-02",1717314822.73,"2014-06-02T07:53:42.73",19759,"2014-02-05",1707181810.98,"2014-02-05T01:10:10.98"],[423,"01-705-1303",19708,"2013-12-16",1702774267.62,"2013-12-16T00:51:07.62",19876,"2014-06-02",1717307973.3,"2014-06-02T05:59:33.30",19759,"2014-02-05",1707205690.87,"2014-02-05T07:48:10.87"],[424,"01-705-1303",19708,"2013-12-16",1702851041.28,"2013-12-16T22:10:41.28",19876,"2014-06-02",1717345116.62,"2014-06-02T16:18:36.62",19759,"2014-02-05",1707216522.74,"2014-02-05T10:48:42.74"],[425,"01-705-1310",19664,"2013-11-02",1699032222.03,"2013-11-02T17:23:42.03",19746,"2014-01-23",1706100075.14,"2014-01-23T12:41:15.14",19676,"2013-11-14",1700053929.27,"2013-11-14T13:12:09.27"],[426,"01-705-1310",19664,"2013-11-02",1699030536.1,"2013-11-02T16:55:36.10",19746,"2014-01-23",1706078749.1,"2014-01-23T06:45:49.10",19732,"2014-01-09",1704904725.8,"2014-01-09T16:38:45.80"],[427,"01-705-1349",19427,"2013-03-10",1678537895.67,"2013-03-10T12:31:35.67",19609,"2013-09-08",1694274505.77,"2013-09-08T15:48:25.77",19456,"2013-04-08",1681059759.94,"2013-04-08T17:02:39.94"],[428,"01-705-1349",19427,"2013-03-10",1678495013.66,"2013-03-10T00:36:53.66",19609,"2013-09-08",1694244129.26,"2013-09-08T07:22:09.26",19459,"2013-04-11",1681270538.85,"2013-04-11T03:35:38.85"],[429,"01-705-1349",19427,"2013-03-10",1678562717.28,"2013-03-10T19:25:17.28",19609,"2013-09-08",1694240657.73,"2013-09-08T06:24:17.73",19595,"2013-08-25",1693084117.79,"2013-08-25T21:08:37.79"],[430,"01-705-1349",19427,"2013-03-10",1678577861.78,"2013-03-10T23:37:41.78",19609,"2013-09-08",1694300984.04,"2013-09-08T23:09:44.04",19595,"2013-08-25",1693078419.9,"2013-08-25T19:33:39.90"],[431,"01-705-1393",19243,"2012-09-07",1662674420.44,"2012-09-07T22:00:20.44",19390,"2013-02-01",1675317224.73,"2013-02-01T05:53:44.73",19255,"2012-09-19",1663664046.83,"2012-09-19T08:54:06.83"],[432,"01-705-1393",19243,"2012-09-07",1662621760.35,"2012-09-07T07:22:40.35",19390,"2013-02-01",1675305487.83,"2013-02-01T02:38:07.83",18966,"2011-12-05",1638721913.35,"2011-12-05T16:31:53.35"],[433,"01-705-1393",19243,"2012-09-07",1662656105.64,"2012-09-07T16:55:05.64",19390,"2013-02-01",1675361260.49,"2013-02-01T18:07:40.49",19379,"2013-01-21",1674398736.9,"2013-01-21T14:45:36.90"],[434,"01-705-1393",19243,"2012-09-07",1662661910.76,"2012-09-07T18:31:50.76",19390,"2013-02-01",1675308204.62,"2013-02-01T03:23:24.62",18966,"2011-12-05",1638734704.46,"2011-12-05T20:05:04.46"],[435,"01-705-1431",19532,"2013-06-23",1687629400.25,"2013-06-23T17:56:40.25",19711,"2013-12-19",1703046612.41,"2013-12-19T04:30:12.41",19531,"2013-06-22",1687534017.17,"2013-06-22T15:26:57.17"],[436,"01-705-1431",19532,"2013-06-23",1687650835.78,"2013-06-23T23:53:55.78",19711,"2013-12-19",1703087373.22,"2013-12-19T15:49:33.22",19543,"2013-07-04",1688587711.9,"2013-07-04T20:08:31.90"],[437,"01-706-1041",19723,"2013-12-31",1704118546.01,"2013-12-31T14:15:46.01",19932,"2014-07-28",1722196637.46,"2014-07-28T19:57:17.46",19114,"2012-05-01",1651471696.19,"2012-05-01T06:08:16.19"],[438,"01-706-1041",19723,"2013-12-31",1704124921.42,"2013-12-31T16:02:01.42",19932,"2014-07-28",1722206499.05,"2014-07-28T22:41:39.05",19730,"2014-01-07",1704680614.32,"2014-01-07T02:23:34.32"],[439,"01-706-1041",19723,"2013-12-31",1704139219.01,"2013-12-31T20:00:19.01",19932,"2014-07-28",1722136824.88,"2014-07-28T03:20:24.88",19737,"2014-01-14",1705301173.24,"2014-01-14T06:46:13.24"],[440,"01-706-1041",19723,"2013-12-31",1704120476.43,"2013-12-31T14:47:56.43",19932,"2014-07-28",1722149799.03,"2014-07-28T06:56:39.03",19738,"2014-01-15",1705392425.16,"2014-01-15T08:07:05.16"],[441,"01-706-1041",19723,"2013-12-31",1704142148.23,"2013-12-31T20:49:08.23",19932,"2014-07-28",1722168747.62,"2014-07-28T12:12:27.62",19737,"2014-01-14",1705309253.8,"2014-01-14T09:00:53.80"],[442,"01-706-1041",19723,"2013-12-31",1704069346.99,"2013-12-31T00:35:46.99",19932,"2014-07-28",1722147798.01,"2014-07-28T06:23:18.01",19786,"2014-03-04",1709562329.46,"2014-03-04T14:25:29.46"],[443,"01-706-1041",19723,"2013-12-31",1704123330.05,"2013-12-31T15:35:30.05",19932,"2014-07-28",1722181309.4,"2014-07-28T15:41:49.40",19114,"2012-05-01",1651492827.12,"2012-05-01T12:00:27.12"],[444,"01-706-1041",19723,"2013-12-31",1704082369.19,"2013-12-31T04:12:49.19",19932,"2014-07-28",1722171101.61,"2014-07-28T12:51:41.61",19738,"2014-01-15",1705434216.1,"2014-01-15T19:43:36.10"],[445,"01-706-1041",19723,"2013-12-31",1704102335.35,"2013-12-31T09:45:35.35",19932,"2014-07-28",1722141296.76,"2014-07-28T04:34:56.76",19786,"2014-03-04",1709519156.41,"2014-03-04T02:25:56.41"],[446,"01-706-1049",19492,"2013-05-14",1684154075.59,"2013-05-14T12:34:35.59",19527,"2013-06-18",1687214669.98,"2013-06-18T22:44:29.98",19512,"2013-06-03",1685912661.89,"2013-06-03T21:04:21.89"],[447,"01-706-1049",19492,"2013-05-14",1684138027.98,"2013-05-14T08:07:07.98",19527,"2013-06-18",1687143083.05,"2013-06-18T02:51:23.05",19527,"2013-06-18",1687137132.05,"2013-06-18T01:12:12.05"],[448,"01-706-1384",19251,"2012-09-15",1663343431.51,"2012-09-15T15:50:31.51",19260,"2012-09-24",1664075335.56,"2012-09-24T03:08:55.56",19251,"2012-09-15",1663333334.64,"2012-09-15T13:02:14.64"],[449,"01-706-1384",19251,"2012-09-15",1663308019.73,"2012-09-15T06:00:19.73",19260,"2012-09-24",1664090503.32,"2012-09-24T07:21:43.32",19251,"2012-09-15",1663315146.93,"2012-09-15T07:59:06.93"],[450,"01-706-1384",19251,"2012-09-15",1663331045.79,"2012-09-15T12:24:05.79",19260,"2012-09-24",1664072092.6,"2012-09-24T02:14:52.60",19251,"2012-09-15",1663326865.19,"2012-09-15T11:14:25.19"],[451,"01-706-1384",19251,"2012-09-15",1663297280.34,"2012-09-15T03:01:20.34",19260,"2012-09-24",1664141471.98,"2012-09-24T21:31:11.98",19259,"2012-09-23",1664038235.68,"2012-09-23T16:50:35.68"],[452,"01-706-1384",19251,"2012-09-15",1663302548.76,"2012-09-15T04:29:08.76",19260,"2012-09-24",1664141905.96,"2012-09-24T21:38:25.96",19259,"2012-09-23",1664011285.54,"2012-09-23T09:21:25.54"],[453,"01-706-1384",19251,"2012-09-15",1663336493.24,"2012-09-15T13:54:53.24",19260,"2012-09-24",1664137635.91,"2012-09-24T20:27:15.91",19251,"2012-09-15",1663320002.48,"2012-09-15T09:20:02.48"],[454,"01-706-1384",19251,"2012-09-15",1663350001.75,"2012-09-15T17:40:01.75",19260,"2012-09-24",1664122782.83,"2012-09-24T16:19:42.83",19251,"2012-09-15",1663310243.24,"2012-09-15T06:37:23.24"],[455,"01-706-1384",19251,"2012-09-15",1663317829.13,"2012-09-15T08:43:49.13",19260,"2012-09-24",1664117285.61,"2012-09-24T14:48:05.61",19251,"2012-09-15",1663321138.54,"2012-09-15T09:38:58.54"],[456,"01-706-1384",19251,"2012-09-15",1663305620.15,"2012-09-15T05:20:20.15",19260,"2012-09-24",1664118010.13,"2012-09-24T15:00:10.13",19259,"2012-09-23",1664001043.61,"2012-09-23T06:30:43.61"],[457,"01-706-1384",19251,"2012-09-15",1663301208.29,"2012-09-15T04:06:48.29",19260,"2012-09-24",1664076283.65,"2012-09-24T03:24:43.65",19259,"2012-09-23",1664022988.39,"2012-09-23T12:36:28.39"],[458,"01-707-1206",19659,"2013-10-28",1698585509.7,"2013-10-28T13:18:29.70",19839,"2014-04-26",1714117369.06,"2014-04-26T07:42:49.06",19687,"2013-11-25",1700975160.54,"2013-11-25T05:06:00.54"],[459,"01-707-1206",19659,"2013-10-28",1698551652.77,"2013-10-28T03:54:12.77",19839,"2014-04-26",1714097833.11,"2014-04-26T02:17:13.11",19688,"2013-11-26",1701047889.39,"2013-11-26T01:18:09.39"],[460,"01-707-1206",19659,"2013-10-28",1698540750.33,"2013-10-28T00:52:30.33",19839,"2014-04-26",1714157243.49,"2014-04-26T18:47:23.49",19695,"2013-12-03",1701724689.93,"2013-12-03T21:18:09.93"],[461,"01-707-1206",19659,"2013-10-28",1698541712.69,"2013-10-28T01:08:32.69",19839,"2014-04-26",1714132555.63,"2014-04-26T11:55:55.63",19688,"2013-11-26",1701097794.3,"2013-11-26T15:09:54.30"],[462,"01-707-1206",19659,"2013-10-28",1698604763.73,"2013-10-28T18:39:23.73",19839,"2014-04-26",1714152631.39,"2014-04-26T17:30:31.39",19695,"2013-12-03",1701726320.69,"2013-12-03T21:45:20.69"],[463,"01-707-1206",19659,"2013-10-28",1698602405.63,"2013-10-28T18:00:05.63",19839,"2014-04-26",1714168455.55,"2014-04-26T21:54:15.55",19687,"2013-11-25",1701028468.54,"2013-11-25T19:54:28.54"],[464,"01-707-1206",19659,"2013-10-28",1698553369.86,"2013-10-28T04:22:49.86",19839,"2014-04-26",1714107526.74,"2014-04-26T04:58:46.74",19762,"2014-02-08",1707488663.67,"2014-02-08T14:24:23.67"],[465,"01-707-1206",19659,"2013-10-28",1698594398.37,"2013-10-28T15:46:38.37",19839,"2014-04-26",1714175021.54,"2014-04-26T23:43:41.54",19762,"2014-02-08",1707455754.77,"2014-02-08T05:15:54.77"],[466,"01-708-1019",19712,"2013-12-20",1703171768.9,"2013-12-20T15:16:08.90",19724,"2014-01-01",1704208414.57,"2014-01-01T15:13:34.57",19723,"2013-12-31",1704142899.31,"2013-12-31T21:01:39.31"],[467,"01-708-1019",19712,"2013-12-20",1703155152.87,"2013-12-20T10:39:12.87",19724,"2014-01-01",1704234532.94,"2014-01-01T22:28:52.94",19724,"2014-01-01",1704189070.32,"2014-01-01T09:51:10.32"],[468,"01-708-1019",19712,"2013-12-20",1703148981.13,"2013-12-20T08:56:21.13",19724,"2014-01-01",1704169207.6,"2014-01-01T04:20:07.60",19724,"2014-01-01",1704195783.17,"2014-01-01T11:43:03.17"],[469,"01-708-1019",19712,"2013-12-20",1703157636.66,"2013-12-20T11:20:36.66",19724,"2014-01-01",1704182691.59,"2014-01-01T08:04:51.59",19724,"2014-01-01",1704164567.33,"2014-01-01T03:02:47.33"],[470,"01-708-1019",19712,"2013-12-20",1703174127.93,"2013-12-20T15:55:27.93",19724,"2014-01-01",1704190217.17,"2014-01-01T10:10:17.17",19724,"2014-01-01",1704182006.98,"2014-01-01T07:53:26.98"],[471,"01-708-1032",19398,"2013-02-09",1675992006.37,"2013-02-09T01:20:06.37",19418,"2013-03-01",1677744381.35,"2013-03-01T08:06:21.35",19415,"2013-02-26",1677528677.81,"2013-02-26T20:11:17.81"],[472,"01-708-1084",19487,"2013-05-09",1683761326.65,"2013-05-09T23:28:46.65",19673,"2013-11-11",1699788951.99,"2013-11-11T11:35:51.99",19501,"2013-05-23",1684960343.07,"2013-05-23T20:32:23.07"],[473,"01-708-1084",19487,"2013-05-09",1683746629.53,"2013-05-09T19:23:49.53",19673,"2013-11-11",1699821962.94,"2013-11-11T20:46:02.94",19501,"2013-05-23",1684952770.68,"2013-05-23T18:26:10.68"],[474,"01-708-1084",19487,"2013-05-09",1683746636.94,"2013-05-09T19:23:56.94",19673,"2013-11-11",1699821167.96,"2013-11-11T20:32:47.96",19518,"2013-06-09",1686357552.68,"2013-06-09T00:39:12.68"],[475,"01-708-1084",19487,"2013-05-09",1683738265.06,"2013-05-09T17:04:25.06",19673,"2013-11-11",1699791061.21,"2013-11-11T12:11:01.21",19518,"2013-06-09",1686377207.55,"2013-06-09T06:06:47.55"],[476,"01-708-1084",19487,"2013-05-09",1683714129.14,"2013-05-09T10:22:09.14",19673,"2013-11-11",1699789262.78,"2013-11-11T11:41:02.78",19532,"2013-06-23",1687647580.86,"2013-06-23T22:59:40.86"],[477,"01-708-1084",19487,"2013-05-09",1683685814.43,"2013-05-09T02:30:14.43",19673,"2013-11-11",1699829710.71,"2013-11-11T22:55:10.71",19532,"2013-06-23",1687568970.25,"2013-06-23T01:09:30.25"],[478,"01-708-1087",19288,"2012-10-22",1666536165.83,"2012-10-22T14:42:45.83",19476,"2013-04-28",1682771217.66,"2013-04-28T12:26:57.66",19377,"2013-01-19",1674221613.54,"2013-01-19T13:33:33.54"],[479,"01-708-1087",19288,"2012-10-22",1666557950.36,"2012-10-22T20:45:50.36",19476,"2013-04-28",1682808391.8,"2013-04-28T22:46:31.80",19377,"2013-01-19",1674191526.02,"2013-01-19T05:12:06.02"],[480,"01-708-1087",19288,"2012-10-22",1666554120.39,"2012-10-22T19:42:00.39",19476,"2013-04-28",1682805652.87,"2013-04-28T22:00:52.87",19393,"2013-02-04",1675611094.36,"2013-02-04T15:31:34.36"],[481,"01-708-1087",19288,"2012-10-22",1666542194.06,"2012-10-22T16:23:14.06",19476,"2013-04-28",1682728772.5,"2013-04-28T00:39:32.50",19405,"2013-02-16",1676609698.98,"2013-02-16T04:54:58.98"],[482,"01-708-1087",19288,"2012-10-22",1666558988.96,"2012-10-22T21:03:08.96",19476,"2013-04-28",1682778896.93,"2013-04-28T14:34:56.93",19433,"2013-03-16",1679038013.42,"2013-03-16T07:26:53.42"],[483,"01-708-1087",19288,"2012-10-22",1666557922.01,"2012-10-22T20:45:22.01",19476,"2013-04-28",1682789777.18,"2013-04-28T17:36:17.18",19433,"2013-03-16",1679023774.9,"2013-03-16T03:29:34.90"],[484,"01-708-1158",19762,"2014-02-08",1707462257.02,"2014-02-08T07:04:17.02",19803,"2014-03-21",1711056438.17,"2014-03-21T21:27:18.17",19779,"2014-02-25",1708934220.74,"2014-02-25T07:57:00.74"],[485,"01-708-1158",19762,"2014-02-08",1707442502.74,"2014-02-08T01:35:02.74",19803,"2014-03-21",1711029098.51,"2014-03-21T13:51:38.51",19804,"2014-03-22",1711145876.64,"2014-03-22T22:17:56.64"],[486,"01-708-1178",19721,"2013-12-29",1703977640.74,"2013-12-29T23:07:20.74",19819,"2014-04-06",1712419748.5,"2014-04-06T16:09:08.50",19711,"2013-12-19",1703100288.32,"2013-12-19T19:24:48.32"],[487,"01-708-1178",19721,"2013-12-29",1703962830.82,"2013-12-29T19:00:30.82",19819,"2014-04-06",1712367714.73,"2014-04-06T01:41:54.73",19783,"2014-03-01",1709276978.9,"2014-03-01T07:09:38.90"],[488,"01-708-1178",19721,"2013-12-29",1703935817.63,"2013-12-29T11:30:17.63",19819,"2014-04-06",1712378218.25,"2014-04-06T04:36:58.25",19791,"2014-03-09",1709955109.51,"2014-03-09T03:31:49.51"],[489,"01-708-1178",19721,"2013-12-29",1703896277.03,"2013-12-29T00:31:17.03",19819,"2014-04-06",1712446446.45,"2014-04-06T23:34:06.45",19791,"2014-03-09",1710011212.04,"2014-03-09T19:06:52.04"],[490,"01-708-1178",19721,"2013-12-29",1703971646.46,"2013-12-29T21:27:26.46",19819,"2014-04-06",1712439718.51,"2014-04-06T21:41:58.51",19791,"2014-03-09",1709952331.04,"2014-03-09T02:45:31.04"],[491,"01-708-1178",19721,"2013-12-29",1703943012.75,"2013-12-29T13:30:12.75",19819,"2014-04-06",1712406846.13,"2014-04-06T12:34:06.13",19806,"2014-03-24",1711299379.36,"2014-03-24T16:56:19.36"],[492,"01-708-1178",19721,"2013-12-29",1703971097.8,"2013-12-29T21:18:17.80",19819,"2014-04-06",1712442939.94,"2014-04-06T22:35:39.94",19806,"2014-03-24",1711269063.38,"2014-03-24T08:31:03.38"],[493,"01-708-1178",19721,"2013-12-29",1703979017.2,"2013-12-29T23:30:17.20",19819,"2014-04-06",1712401860.54,"2014-04-06T11:11:00.54",19806,"2014-03-24",1711256668.8,"2014-03-24T05:04:28.80"],[494,"01-708-1178",19721,"2013-12-29",1703947704.31,"2013-12-29T14:48:24.31",19819,"2014-04-06",1712433572.66,"2014-04-06T19:59:32.66",19806,"2014-03-24",1711307157.14,"2014-03-24T19:05:57.14"],[495,"01-708-1213",19398,"2013-02-09",1676065296.38,"2013-02-09T21:41:36.38",19411,"2013-02-22",1677129486.08,"2013-02-22T05:18:06.08",19411,"2013-02-22",1677176438.67,"2013-02-22T18:20:38.67"],[496,"01-708-1213",19398,"2013-02-09",1676068333.56,"2013-02-09T22:32:13.56",19411,"2013-02-22",1677116007.56,"2013-02-22T01:33:27.56",19411,"2013-02-22",1677146112.24,"2013-02-22T09:55:12.24"],[497,"01-708-1216",19290,"2012-10-24",1666660665.86,"2012-10-24T01:17:45.86",19326,"2012-11-29",1669827965.7,"2012-11-29T17:06:05.70",19303,"2012-11-06",1667856903.69,"2012-11-06T21:35:03.69"],[498,"01-708-1216",19290,"2012-10-24",1666691697.71,"2012-10-24T09:54:57.71",19326,"2012-11-29",1669819371.45,"2012-11-29T14:42:51.45",19303,"2012-11-06",1667831605.84,"2012-11-06T14:33:25.84"],[499,"01-708-1216",19290,"2012-10-24",1666721432.25,"2012-10-24T18:10:32.25",19326,"2012-11-29",1669852401.78,"2012-11-29T23:53:21.78",19319,"2012-11-22",1669208775.04,"2012-11-22T13:06:15.04"],[500,"01-708-1216",19290,"2012-10-24",1666699045.31,"2012-10-24T11:57:25.31",19326,"2012-11-29",1669852356.82,"2012-11-29T23:52:36.82",19303,"2012-11-06",1667786805.47,"2012-11-06T02:06:45.47"],[501,"01-708-1253",19485,"2013-05-07",1683540838.84,"2013-05-07T10:13:58.84",19667,"2013-11-05",1699256157.94,"2013-11-05T07:35:57.94",19484,"2013-05-06",1683463356.75,"2013-05-06T12:42:36.75"],[502,"01-708-1253",19485,"2013-05-07",1683513738.08,"2013-05-07T02:42:18.08",19667,"2013-11-05",1699295794.21,"2013-11-05T18:36:34.21",19484,"2013-05-06",1683460929.11,"2013-05-06T12:02:09.11"],[503,"01-708-1253",19485,"2013-05-07",1683544275.08,"2013-05-07T11:11:15.08",19667,"2013-11-05",1699314636.43,"2013-11-05T23:50:36.43",19485,"2013-05-07",1683566853.88,"2013-05-07T17:27:33.88"],[504,"01-708-1253",19485,"2013-05-07",1683538982.05,"2013-05-07T09:43:02.05",19667,"2013-11-05",1699235489.89,"2013-11-05T01:51:29.89",19484,"2013-05-06",1683472455.35,"2013-05-06T15:14:15.35"],[505,"01-708-1253",19485,"2013-05-07",1683548787.74,"2013-05-07T12:26:27.74",19667,"2013-11-05",1699261856.19,"2013-11-05T09:10:56.19",19484,"2013-05-06",1683419292.48,"2013-05-06T00:28:12.48"],[506,"01-708-1253",19485,"2013-05-07",1683589627.9,"2013-05-07T23:47:07.90",19667,"2013-11-05",1699286487.51,"2013-11-05T16:01:27.51",19485,"2013-05-07",1683576908.72,"2013-05-07T20:15:08.72"],[507,"01-708-1253",19485,"2013-05-07",1683517830.88,"2013-05-07T03:50:30.88",19667,"2013-11-05",1699242986.15,"2013-11-05T03:56:26.15",19516,"2013-06-07",1686250442.04,"2013-06-07T18:54:02.04"],[508,"01-708-1253",19485,"2013-05-07",1683583089.25,"2013-05-07T21:58:09.25",19667,"2013-11-05",1699254352.4,"2013-11-05T07:05:52.40",19516,"2013-06-07",1686198525.47,"2013-06-07T04:28:45.47"],[509,"01-708-1272",19395,"2013-02-06",1675740971.8,"2013-02-06T03:36:11.80",19439,"2013-03-22",1679595210.67,"2013-03-22T18:13:30.67",19400,"2013-02-11",1676170897.55,"2013-02-11T03:01:37.55"],[510,"01-708-1272",19395,"2013-02-06",1675771948.88,"2013-02-06T12:12:28.88",19439,"2013-03-22",1679574842.37,"2013-03-22T12:34:02.37",19407,"2013-02-18",1676823619.96,"2013-02-18T16:20:19.96"],[511,"01-708-1272",19395,"2013-02-06",1675803392.19,"2013-02-06T20:56:32.19",19439,"2013-03-22",1679530280.3,"2013-03-22T00:11:20.30",19410,"2013-02-21",1677062945.83,"2013-02-21T10:49:05.83"],[512,"01-708-1272",19395,"2013-02-06",1675731425.5,"2013-02-06T00:57:05.50",19439,"2013-03-22",1679597629.48,"2013-03-22T18:53:49.48",19416,"2013-02-27",1677576750.64,"2013-02-27T09:32:30.64"],[513,"01-708-1272",19395,"2013-02-06",1675780085.46,"2013-02-06T14:28:05.46",19439,"2013-03-22",1679561313.02,"2013-03-22T08:48:33.02",19418,"2013-03-01",1677732337.44,"2013-03-01T04:45:37.44"],[514,"01-708-1272",19395,"2013-02-06",1675785655.12,"2013-02-06T16:00:55.12",19439,"2013-03-22",1679554335.71,"2013-03-22T06:52:15.71",19418,"2013-03-01",1677792558.11,"2013-03-01T21:29:18.11"],[515,"01-708-1272",19395,"2013-02-06",1675741607.58,"2013-02-06T03:46:47.58",19439,"2013-03-22",1679600086.48,"2013-03-22T19:34:46.48",19424,"2013-03-07",1678273964.23,"2013-03-07T11:12:44.23"],[516,"01-708-1272",19395,"2013-02-06",1675728888.06,"2013-02-06T00:14:48.06",19439,"2013-03-22",1679570437.05,"2013-03-22T11:20:37.05",19418,"2013-03-01",1677773732.14,"2013-03-01T16:15:32.14"],[517,"01-708-1272",19395,"2013-02-06",1675748715.12,"2013-02-06T05:45:15.12",19439,"2013-03-22",1679561089.9,"2013-03-22T08:44:49.90",19418,"2013-03-01",1677719047.04,"2013-03-01T01:04:07.04"],[518,"01-708-1272",19395,"2013-02-06",1675760015.66,"2013-02-06T08:53:35.66",19439,"2013-03-22",1679542667.6,"2013-03-22T03:37:47.60",19424,"2013-03-07",1678246889.76,"2013-03-07T03:41:29.76"],[519,"01-708-1272",19395,"2013-02-06",1675734902.7,"2013-02-06T01:55:02.70",19439,"2013-03-22",1679589566.1,"2013-03-22T16:39:26.10",19436,"2013-03-19",1679349561.05,"2013-03-19T21:59:21.05"],[520,"01-708-1272",19395,"2013-02-06",1675775091.62,"2013-02-06T13:04:51.62",19439,"2013-03-22",1679562767.87,"2013-03-22T09:12:47.87",19410,"2013-02-21",1677064488.45,"2013-02-21T11:14:48.45"],[521,"01-708-1286",19611,"2013-09-10",1694441522.78,"2013-09-10T14:12:02.78",19790,"2014-03-08",1709887257.21,"2014-03-08T08:40:57.21",19613,"2013-09-12",1694600689.52,"2013-09-12T10:24:49.52"],[522,"01-708-1286",19611,"2013-09-10",1694453280.27,"2013-09-10T17:28:00.27",19790,"2014-03-08",1709925294.63,"2014-03-08T19:14:54.63",19624,"2013-09-23",1695519774.72,"2013-09-23T01:42:54.72"],[523,"01-708-1286",19611,"2013-09-10",1694464701.63,"2013-09-10T20:38:21.63",19790,"2014-03-08",1709937361.64,"2014-03-08T22:36:01.64",19772,"2014-02-18",1708308744.37,"2014-02-18T02:12:24.37"],[524,"01-708-1286",19611,"2013-09-10",1694462208.35,"2013-09-10T19:56:48.35",19790,"2014-03-08",1709868157.4,"2014-03-08T03:22:37.40",19772,"2014-02-18",1708354275.1,"2014-02-18T14:51:15.10"],[525,"01-708-1296",19523,"2013-06-14",1686868524.72,"2013-06-14T22:35:24.72",19704,"2013-12-12",1702444841.9,"2013-12-12T05:20:41.90",19536,"2013-06-27",1687967202.06,"2013-06-27T15:46:42.06"],[526,"01-708-1296",19523,"2013-06-14",1686824556.9,"2013-06-14T10:22:36.90",19704,"2013-12-12",1702468931.24,"2013-12-12T12:02:11.24",19536,"2013-06-27",1687913896.39,"2013-06-27T00:58:16.39"],[527,"01-708-1296",19523,"2013-06-14",1686872775.82,"2013-06-14T23:46:15.82",19704,"2013-12-12",1702438958.67,"2013-12-12T03:42:38.67",19605,"2013-09-04",1693932761.57,"2013-09-04T16:52:41.57"],[528,"01-708-1296",19523,"2013-06-14",1686814920.23,"2013-06-14T07:42:00.23",19704,"2013-12-12",1702483872.2,"2013-12-12T16:11:12.20",19605,"2013-09-04",1693915931.66,"2013-09-04T12:12:11.66"],[529,"01-708-1296",19523,"2013-06-14",1686828581.96,"2013-06-14T11:29:41.96",19704,"2013-12-12",1702454207.85,"2013-12-12T07:56:47.85",19635,"2013-10-04",1696493237.08,"2013-10-04T08:07:17.08"],[530,"01-708-1296",19523,"2013-06-14",1686838425.26,"2013-06-14T14:13:45.26",19704,"2013-12-12",1702438628.9,"2013-12-12T03:37:08.90",19635,"2013-10-04",1696521038.48,"2013-10-04T15:50:38.48"],[531,"01-708-1296",19523,"2013-06-14",1686803967.83,"2013-06-14T04:39:27.83",19704,"2013-12-12",1702503538.07,"2013-12-12T21:38:58.07",19699,"2013-12-07",1702002169.96,"2013-12-07T02:22:49.96"],[532,"01-708-1297",19383,"2013-01-25",1674766308.8,"2013-01-25T20:51:48.80",19481,"2013-05-03",1683243333.2,"2013-05-03T23:35:33.20",19450,"2013-04-02",1680498828.47,"2013-04-02T05:13:48.47"],[533,"01-708-1297",19383,"2013-01-25",1674735943.41,"2013-01-25T12:25:43.41",19481,"2013-05-03",1683182722.69,"2013-05-03T06:45:22.69",19450,"2013-04-02",1680549233.22,"2013-04-02T19:13:53.22"],[534,"01-708-1297",19383,"2013-01-25",1674715716.17,"2013-01-25T06:48:36.17",19481,"2013-05-03",1683211172.38,"2013-05-03T14:39:32.38",19486,"2013-05-08",1683660863.69,"2013-05-08T19:34:23.69"],[535,"01-708-1316",19593,"2013-08-23",1692900185.39,"2013-08-23T18:03:05.39",19783,"2014-03-01",1709266998.03,"2014-03-01T04:23:18.03",19752,"2014-01-29",1706610829.31,"2014-01-29T10:33:49.31"],[536,"01-708-1316",19593,"2013-08-23",1692901408.7,"2013-08-23T18:23:28.70",19783,"2014-03-01",1709316831.95,"2014-03-01T18:13:51.95",19769,"2014-02-15",1708063726.2,"2014-02-15T06:08:46.20"],[537,"01-708-1336",19334,"2012-12-07",1670458446.94,"2012-12-07T00:14:06.94",19514,"2013-06-05",1686042436.31,"2013-06-05T09:07:16.31",19345,"2012-12-18",1671413096.87,"2012-12-18T01:24:56.87"],[538,"01-708-1336",19334,"2012-12-07",1670460271.35,"2012-12-07T00:44:31.35",19514,"2013-06-05",1686085717.31,"2013-06-05T21:08:37.31",19370,"2013-01-12",1673646543.73,"2013-01-12T21:49:03.73"],[539,"01-708-1336",19334,"2012-12-07",1670459036.45,"2012-12-07T00:23:56.45",19514,"2013-06-05",1686094624.59,"2013-06-05T23:37:04.59",19391,"2013-02-02",1675385744.08,"2013-02-02T00:55:44.08"],[540,"01-708-1336",19334,"2012-12-07",1670476592.27,"2012-12-07T05:16:32.27",19514,"2013-06-05",1686091646.7,"2013-06-05T22:47:26.70",19458,"2013-04-10",1681223015.07,"2013-04-10T14:23:35.07"],[541,"01-708-1336",19334,"2012-12-07",1670528184.79,"2012-12-07T19:36:24.79",19514,"2013-06-05",1686053438.42,"2013-06-05T12:10:38.42",19458,"2013-04-10",1681249166.29,"2013-04-10T21:39:26.29"],[542,"01-708-1336",19334,"2012-12-07",1670510504.85,"2012-12-07T14:41:44.85",19514,"2013-06-05",1686078552.04,"2013-06-05T19:09:12.04",19458,"2013-04-10",1681235635.8,"2013-04-10T17:53:55.80"],[543,"01-708-1336",19334,"2012-12-07",1670500473.61,"2012-12-07T11:54:33.61",19514,"2013-06-05",1686075474.13,"2013-06-05T18:17:54.13",19458,"2013-04-10",1681231681.52,"2013-04-10T16:48:01.52"],[544,"01-708-1347",19468,"2013-04-20",1682111471.52,"2013-04-20T21:11:11.52",19527,"2013-06-18",1687174343.14,"2013-06-18T11:32:23.14",19522,"2013-06-13",1686705512.81,"2013-06-13T01:18:32.81"],[545,"01-708-1347",19468,"2013-04-20",1682049885.59,"2013-04-20T04:04:45.59",19527,"2013-06-18",1687156834.11,"2013-06-18T06:40:34.11",19522,"2013-06-13",1686755054.79,"2013-06-13T15:04:14.79"],[546,"01-708-1347",19468,"2013-04-20",1682077604.98,"2013-04-20T11:46:44.98",19527,"2013-06-18",1687209194.56,"2013-06-18T21:13:14.56",19522,"2013-06-13",1686771651.49,"2013-06-13T19:40:51.49"],[547,"01-708-1347",19468,"2013-04-20",1682075830.1,"2013-04-20T11:17:10.10",19527,"2013-06-18",1687155201.02,"2013-06-18T06:13:21.02",19522,"2013-06-13",1686743302.25,"2013-06-13T11:48:22.25"],[548,"01-708-1347",19468,"2013-04-20",1682107823.13,"2013-04-20T20:10:23.13",19527,"2013-06-18",1687138222.92,"2013-06-18T01:30:22.92",19522,"2013-06-13",1686714699.47,"2013-06-13T03:51:39.47"],[549,"01-708-1347",19468,"2013-04-20",1682088623.84,"2013-04-20T14:50:23.84",19527,"2013-06-18",1687175843.38,"2013-06-18T11:57:23.38",19522,"2013-06-13",1686713326.45,"2013-06-13T03:28:46.45"],[550,"01-708-1347",19468,"2013-04-20",1682119127.47,"2013-04-20T23:18:47.47",19527,"2013-06-18",1687148674.57,"2013-06-18T04:24:34.57",19522,"2013-06-13",1686728588.77,"2013-06-13T07:43:08.77"],[551,"01-708-1347",19468,"2013-04-20",1682086458.9,"2013-04-20T14:14:18.90",19527,"2013-06-18",1687213713.29,"2013-06-18T22:28:33.29",19522,"2013-06-13",1686703928.75,"2013-06-13T00:52:08.75"],[552,"01-708-1348",19575,"2013-08-05",1691302503.57,"2013-08-05T06:15:03.57",19767,"2014-02-13",1707934510.96,"2014-02-13T18:15:10.96",19588,"2013-08-18",1692419019.18,"2013-08-18T04:23:39.18"],[553,"01-708-1348",19575,"2013-08-05",1691360439.43,"2013-08-05T22:20:39.43",19767,"2014-02-13",1707890117.94,"2014-02-13T05:55:17.94",19588,"2013-08-18",1692424254.59,"2013-08-18T05:50:54.59"],[554,"01-708-1348",19575,"2013-08-05",1691318000.47,"2013-08-05T10:33:20.47",19767,"2014-02-13",1707879883.5,"2014-02-13T03:04:43.50",19693,"2013-12-01",1701518704.31,"2013-12-01T12:05:04.31"],[555,"01-708-1353",19543,"2013-07-04",1688563931.95,"2013-07-04T13:32:11.95",19598,"2013-08-28",1693340852.48,"2013-08-28T20:27:32.48",19588,"2013-08-18",1692443817.38,"2013-08-18T11:16:57.38"],[556,"01-708-1353",19543,"2013-07-04",1688580798.1,"2013-07-04T18:13:18.10",19598,"2013-08-28",1693275592.44,"2013-08-28T02:19:52.44",19588,"2013-08-18",1692435847.59,"2013-08-18T09:04:07.59"],[557,"01-708-1353",19543,"2013-07-04",1688585455.39,"2013-07-04T19:30:55.39",19598,"2013-08-28",1693299301.58,"2013-08-28T08:55:01.58",19598,"2013-08-28",1693277543.62,"2013-08-28T02:52:23.62"],[558,"01-708-1372",19460,"2013-04-12",1681366507.14,"2013-04-12T06:15:07.14",19467,"2013-04-19",1682023683.28,"2013-04-19T20:48:03.28",19458,"2013-04-10",1681232412.32,"2013-04-10T17:00:12.32"],[559,"01-708-1406",19718,"2013-12-26",1703708496.28,"2013-12-26T20:21:36.28",19906,"2014-07-02",1719908518.85,"2014-07-02T08:21:58.85",19890,"2014-06-16",1718530933.71,"2014-06-16T09:42:13.71"],[560,"01-708-1406",19718,"2013-12-26",1703716183.39,"2013-12-26T22:29:43.39",19906,"2014-07-02",1719895397.76,"2014-07-02T04:43:17.76",19890,"2014-06-16",1718520311.93,"2014-06-16T06:45:11.93"],[561,"01-708-1428",19671,"2013-11-09",1699628532.73,"2013-11-09T15:02:12.73",19706,"2013-12-14",1702609383.46,"2013-12-14T03:03:03.46",19684,"2013-11-22",1700739830.23,"2013-11-22T11:43:50.23"],[562,"01-708-1428",19671,"2013-11-09",1699583262.32,"2013-11-09T02:27:42.32",19706,"2013-12-14",1702675109.33,"2013-12-14T21:18:29.33",19702,"2013-12-10",1702288010.72,"2013-12-10T09:46:50.72"],[563,"01-708-1428",19671,"2013-11-09",1699612400.87,"2013-11-09T10:33:20.87",19706,"2013-12-14",1702639628.95,"2013-12-14T11:27:08.95",19702,"2013-12-10",1702338290.64,"2013-12-10T23:44:50.64"],[564,"01-708-1428",19671,"2013-11-09",1699633117.72,"2013-11-09T16:18:37.72",19706,"2013-12-14",1702658864.17,"2013-12-14T16:47:44.17",19702,"2013-12-10",1702313739.16,"2013-12-10T16:55:39.16"],[565,"01-708-1428",19671,"2013-11-09",1699611618.96,"2013-11-09T10:20:18.96",19706,"2013-12-14",1702656269.54,"2013-12-14T16:04:29.54",19702,"2013-12-10",1702319899.63,"2013-12-10T18:38:19.63"],[566,"01-708-1428",19671,"2013-11-09",1699608784.64,"2013-11-09T09:33:04.64",19706,"2013-12-14",1702626925.06,"2013-12-14T07:55:25.06",19702,"2013-12-10",1702293117.3,"2013-12-10T11:11:57.30"],[567,"01-708-1428",19671,"2013-11-09",1699657329.99,"2013-11-09T23:02:09.99",19706,"2013-12-14",1702653120.4,"2013-12-14T15:12:00.40",19702,"2013-12-10",1702298562.32,"2013-12-10T12:42:42.32"],[568,"01-709-1007",19205,"2012-07-31",1659345399.75,"2012-07-31T09:16:39.75",19233,"2012-08-28",1661738499.33,"2012-08-28T02:01:39.33",19221,"2012-08-16",1660768784.14,"2012-08-16T20:39:44.14"],[569,"01-709-1007",19205,"2012-07-31",1659382736.73,"2012-07-31T19:38:56.73",19233,"2012-08-28",1661761272.63,"2012-08-28T08:21:12.63",19221,"2012-08-16",1660724706.4,"2012-08-16T08:25:06.40"],[570,"01-709-1007",19205,"2012-07-31",1659390361.45,"2012-07-31T21:46:01.45",19233,"2012-08-28",1661806826.56,"2012-08-28T21:00:26.56",19226,"2012-08-21",1661196145.47,"2012-08-21T19:22:25.47"],[571,"01-709-1007",19205,"2012-07-31",1659348853.4,"2012-07-31T10:14:13.40",19233,"2012-08-28",1661775036.08,"2012-08-28T12:10:36.08",19235,"2012-08-30",1661957076.15,"2012-08-30T14:44:36.15"],[572,"01-709-1020",19328,"2012-12-01",1669998864.02,"2012-12-01T16:34:24.02",19510,"2013-06-01",1685741965.59,"2013-06-01T21:39:25.59",19354,"2012-12-27",1672265154.92,"2012-12-27T22:05:54.92"],[573,"01-709-1020",19328,"2012-12-01",1670000598.2,"2012-12-01T17:03:18.20",19510,"2013-06-01",1685725168.43,"2013-06-01T16:59:28.43",19361,"2013-01-03",1672811728.35,"2013-01-03T05:55:28.35"],[574,"01-709-1020",19328,"2012-12-01",1669960221.02,"2012-12-01T05:50:21.02",19510,"2013-06-01",1685668119.03,"2013-06-01T01:08:39.03",19361,"2013-01-03",1672857205.56,"2013-01-03T18:33:25.56"],[575,"01-709-1020",19328,"2012-12-01",1669966946.2,"2012-12-01T07:42:26.20",19510,"2013-06-01",1685705358.48,"2013-06-01T11:29:18.48",19373,"2013-01-15",1673906515.24,"2013-01-15T22:01:55.24"],[576,"01-709-1029",19352,"2012-12-25",1672031335.68,"2012-12-25T05:08:55.68",19535,"2013-06-26",1687896137.54,"2013-06-26T20:02:17.54",19367,"2013-01-09",1673384695.52,"2013-01-09T21:04:55.52"],[577,"01-709-1029",19352,"2012-12-25",1672064271.03,"2012-12-25T14:17:51.03",19535,"2013-06-26",1687906231.13,"2013-06-26T22:50:31.13",19375,"2013-01-17",1674039705.99,"2013-01-17T11:01:45.99"],[578,"01-709-1029",19352,"2012-12-25",1672029693.43,"2012-12-25T04:41:33.43",19535,"2013-06-26",1687881711.59,"2013-06-26T16:01:51.59",19382,"2013-01-24",1674625831.4,"2013-01-24T05:50:31.40"],[579,"01-709-1029",19352,"2012-12-25",1672056032.1,"2012-12-25T12:00:32.10",19535,"2013-06-26",1687825163.93,"2013-06-26T00:19:23.93",19367,"2013-01-09",1673362348.67,"2013-01-09T14:52:28.67"],[580,"01-709-1029",19352,"2012-12-25",1672068831.93,"2012-12-25T15:33:51.93",19535,"2013-06-26",1687886578.39,"2013-06-26T17:22:58.39",19382,"2013-01-24",1674619210.05,"2013-01-24T04:00:10.05"],[581,"01-709-1029",19352,"2012-12-25",1672090749.91,"2012-12-25T21:39:09.91",19535,"2013-06-26",1687829933.56,"2013-06-26T01:38:53.56",19437,"2013-03-20",1679401478.31,"2013-03-20T12:24:38.31"],[582,"01-709-1029",19352,"2012-12-25",1672050173.12,"2012-12-25T10:22:53.12",19535,"2013-06-26",1687860929.19,"2013-06-26T10:15:29.19",19437,"2013-03-20",1679424115.76,"2013-03-20T18:41:55.76"],[583,"01-709-1029",19352,"2012-12-25",1672021033.98,"2012-12-25T02:17:13.98",19535,"2013-06-26",1687904025.02,"2013-06-26T22:13:45.02",19437,"2013-03-20",1679429240.35,"2013-03-20T20:07:20.35"],[584,"01-709-1029",19352,"2012-12-25",1672014461.28,"2012-12-25T00:27:41.28",19535,"2013-06-26",1687839089.02,"2013-06-26T04:11:29.02",19437,"2013-03-20",1679442259.83,"2013-03-20T23:44:19.83"],[585,"01-709-1029",19352,"2012-12-25",1672013494.58,"2012-12-25T00:11:34.58",19535,"2013-06-26",1687853569.71,"2013-06-26T08:12:49.71",19490,"2013-05-12",1683956785.15,"2013-05-12T05:46:25.15"],[586,"01-709-1029",19352,"2012-12-25",1672093620.89,"2012-12-25T22:27:00.89",19535,"2013-06-26",1687824831.78,"2013-06-26T00:13:51.78",19490,"2013-05-12",1683960325.14,"2013-05-12T06:45:25.14"],[587,"01-709-1029",19352,"2012-12-25",1672061860.48,"2012-12-25T13:37:40.48",19535,"2013-06-26",1687889354.56,"2013-06-26T18:09:14.56",19493,"2013-05-15",1684207235.66,"2013-05-15T03:20:35.66"],[588,"01-709-1029",19352,"2012-12-25",1672079260.09,"2012-12-25T18:27:40.09",19535,"2013-06-26",1687858907.02,"2013-06-26T09:41:47.02",19490,"2013-05-12",1683994053.99,"2013-05-12T16:07:33.99"],[589,"01-709-1029",19352,"2012-12-25",1672097567.9,"2012-12-25T23:32:47.90",19535,"2013-06-26",1687889908.75,"2013-06-26T18:18:28.75",19490,"2013-05-12",1683978087.37,"2013-05-12T11:41:27.37"],[590,"01-709-1029",19352,"2012-12-25",1672039165.11,"2012-12-25T07:19:25.11",19535,"2013-06-26",1687849376.19,"2013-06-26T07:02:56.19",19521,"2013-06-12",1686644199.78,"2013-06-12T08:16:39.78"],[591,"01-709-1029",19352,"2012-12-25",1672073049.17,"2012-12-25T16:44:09.17",19535,"2013-06-26",1687858143.95,"2013-06-26T09:29:03.95",19528,"2013-06-19",1687268848.91,"2013-06-19T13:47:28.91"],[592,"01-709-1081",19741,"2014-01-18",1705650866.66,"2014-01-18T07:54:26.66",19840,"2014-04-27",1714232768.74,"2014-04-27T15:46:08.74",19820,"2014-04-07",1712511133.75,"2014-04-07T17:32:13.75"],[593,"01-709-1081",19741,"2014-01-18",1705684422.34,"2014-01-18T17:13:42.34",19840,"2014-04-27",1714212703.11,"2014-04-27T10:11:43.11",19844,"2014-05-01",1714570055.23,"2014-05-01T13:27:35.23"],[594,"01-709-1088",19825,"2014-04-12",1712909635.28,"2014-04-12T08:13:55.28",20005,"2014-10-09",1728489374.02,"2014-10-09T15:56:14.02",19851,"2014-05-08",1715131837.17,"2014-05-08T01:30:37.17"],[595,"01-709-1088",19825,"2014-04-12",1712885806.68,"2014-04-12T01:36:46.68",20005,"2014-10-09",1728484674.14,"2014-10-09T14:37:54.14",19937,"2014-08-02",1722594244.43,"2014-08-02T10:24:04.43"],[596,"01-709-1099",19656,"2013-10-25",1698316603.94,"2013-10-25T10:36:43.94",19838,"2014-04-25",1714067830.74,"2014-04-25T17:57:10.74",19668,"2013-11-06",1699315877.17,"2013-11-06T00:11:17.17"],[597,"01-709-1099",19656,"2013-10-25",1698278449.65,"2013-10-25T00:00:49.65",19838,"2014-04-25",1714020856.63,"2014-04-25T04:54:16.63",19674,"2013-11-12",1699864147.46,"2013-11-12T08:29:07.46"],[598,"01-709-1099",19656,"2013-10-25",1698309076.96,"2013-10-25T08:31:16.96",19838,"2014-04-25",1714038160.65,"2014-04-25T09:42:40.65",19674,"2013-11-12",1699847903.53,"2013-11-12T03:58:23.53"],[599,"01-709-1099",19656,"2013-10-25",1698344784.08,"2013-10-25T18:26:24.08",19838,"2014-04-25",1714078424.26,"2014-04-25T20:53:44.26",19674,"2013-11-12",1699916462.26,"2013-11-12T23:01:02.26"],[600,"01-709-1099",19656,"2013-10-25",1698328778.23,"2013-10-25T13:59:38.23",19838,"2014-04-25",1714081991.95,"2014-04-25T21:53:11.95",19668,"2013-11-06",1699355394.46,"2013-11-06T11:09:54.46"],[601,"01-709-1099",19656,"2013-10-25",1698301029.85,"2013-10-25T06:17:09.85",19838,"2014-04-25",1714036032.77,"2014-04-25T09:07:12.77",19674,"2013-11-12",1699869281.94,"2013-11-12T09:54:41.94"],[602,"01-709-1099",19656,"2013-10-25",1698332180.72,"2013-10-25T14:56:20.72",19838,"2014-04-25",1714028838.05,"2014-04-25T07:07:18.05",19674,"2013-11-12",1699914108.49,"2013-11-12T22:21:48.49"],[603,"01-709-1099",19656,"2013-10-25",1698335893.63,"2013-10-25T15:58:13.63",19838,"2014-04-25",1714050187.76,"2014-04-25T13:03:07.76",19805,"2014-03-23",1711188745.76,"2014-03-23T10:12:25.76"],[604,"01-709-1102",19373,"2013-01-15",1673877290.7,"2013-01-15T13:54:50.70",19444,"2013-03-27",1680044633.61,"2013-03-27T23:03:53.61",19400,"2013-02-11",1676161202.76,"2013-02-11T00:20:02.76"],[605,"01-709-1102",19373,"2013-01-15",1673899157.98,"2013-01-15T19:59:17.98",19444,"2013-03-27",1679967635.46,"2013-03-27T01:40:35.46",19400,"2013-02-11",1676218389.39,"2013-02-11T16:13:09.39"],[606,"01-709-1102",19373,"2013-01-15",1673898759.55,"2013-01-15T19:52:39.55",19444,"2013-03-27",1680047585.88,"2013-03-27T23:53:05.88",19400,"2013-02-11",1676182994.11,"2013-02-11T06:23:14.11"],[607,"01-709-1102",19373,"2013-01-15",1673845826.37,"2013-01-15T05:10:26.37",19444,"2013-03-27",1680019836.26,"2013-03-27T16:10:36.26",19400,"2013-02-11",1676161885.29,"2013-02-11T00:31:25.29"],[608,"01-709-1102",19373,"2013-01-15",1673842381.53,"2013-01-15T04:13:01.53",19444,"2013-03-27",1680029803.01,"2013-03-27T18:56:43.01",19437,"2013-03-20",1679369442.56,"2013-03-20T03:30:42.56"],[609,"01-709-1102",19373,"2013-01-15",1673891137.18,"2013-01-15T17:45:37.18",19444,"2013-03-27",1680003752.85,"2013-03-27T11:42:32.85",19443,"2013-03-26",1679899717.99,"2013-03-26T06:48:37.99"],[610,"01-709-1168",19572,"2013-08-02",1691090838.67,"2013-08-02T19:27:18.67",19627,"2013-09-26",1695842870.8,"2013-09-26T19:27:50.80",19587,"2013-08-17",1692362229.58,"2013-08-17T12:37:09.58"],[611,"01-709-1168",19572,"2013-08-02",1691041709.07,"2013-08-02T05:48:29.07",19627,"2013-09-26",1695816413.51,"2013-09-26T12:06:53.51",19587,"2013-08-17",1692386878.42,"2013-08-17T19:27:58.42"],[612,"01-709-1168",19572,"2013-08-02",1691031981.59,"2013-08-02T03:06:21.59",19627,"2013-09-26",1695832218.99,"2013-09-26T16:30:18.99",19607,"2013-09-06",1694070840.75,"2013-09-06T07:14:00.75"],[613,"01-709-1168",19572,"2013-08-02",1691099278.23,"2013-08-02T21:47:58.23",19627,"2013-09-26",1695855189.22,"2013-09-26T22:53:09.22",19607,"2013-09-06",1694069909.84,"2013-09-06T06:58:29.84"],[614,"01-709-1168",19572,"2013-08-02",1691031246.73,"2013-08-02T02:54:06.73",19627,"2013-09-26",1695782148.28,"2013-09-26T02:35:48.28",19607,"2013-09-06",1694114207.64,"2013-09-06T19:16:47.64"],[615,"01-709-1168",19572,"2013-08-02",1691022483.85,"2013-08-02T00:28:03.85",19627,"2013-09-26",1695784249.35,"2013-09-26T03:10:49.35",19607,"2013-09-06",1694115717.91,"2013-09-06T19:41:57.91"],[616,"01-709-1217",19421,"2013-03-04",1678018938.48,"2013-03-04T12:22:18.48",19520,"2013-06-11",1686563883.64,"2013-06-11T09:58:03.64",19423,"2013-03-06",1678198692.29,"2013-03-06T14:18:12.29"],[617,"01-709-1217",19421,"2013-03-04",1678031480.58,"2013-03-04T15:51:20.58",19520,"2013-06-11",1686601712.36,"2013-06-11T20:28:32.36",19437,"2013-03-20",1679406422.81,"2013-03-20T13:47:02.81"],[618,"01-709-1217",19421,"2013-03-04",1677989357.73,"2013-03-04T04:09:17.73",19520,"2013-06-11",1686541512.85,"2013-06-11T03:45:12.85",19443,"2013-03-26",1679897248.2,"2013-03-26T06:07:28.20"],[619,"01-709-1217",19421,"2013-03-04",1678057540.88,"2013-03-04T23:05:40.88",19520,"2013-06-11",1686581773,"2013-06-11T14:56:13.00",19444,"2013-03-27",1679975891.78,"2013-03-27T03:58:11.78"],[620,"01-709-1217",19421,"2013-03-04",1678032373.29,"2013-03-04T16:06:13.29",19520,"2013-06-11",1686569783.59,"2013-06-11T11:36:23.59",19447,"2013-03-30",1680255254.03,"2013-03-30T09:34:14.03"],[621,"01-709-1217",19421,"2013-03-04",1678054936.83,"2013-03-04T22:22:16.83",19520,"2013-06-11",1686595608.46,"2013-06-11T18:46:48.46",19449,"2013-04-01",1680447398.66,"2013-04-01T14:56:38.66"],[622,"01-709-1217",19421,"2013-03-04",1677991494.65,"2013-03-04T04:44:54.65",19520,"2013-06-11",1686594581.48,"2013-06-11T18:29:41.48",19449,"2013-04-01",1680430687.8,"2013-04-01T10:18:07.80"],[623,"01-709-1217",19421,"2013-03-04",1678021589.09,"2013-03-04T13:06:29.09",19520,"2013-06-11",1686611016.68,"2013-06-11T23:03:36.68",19443,"2013-03-26",1679900310.72,"2013-03-26T06:58:30.72"],[624,"01-709-1217",19421,"2013-03-04",1678043419.95,"2013-03-04T19:10:19.95",19520,"2013-06-11",1686549368.5,"2013-06-11T05:56:08.50",19495,"2013-05-17",1684410993.97,"2013-05-17T11:56:33.97"],[625,"01-709-1217",19421,"2013-03-04",1678059403.4,"2013-03-04T23:36:43.40",19520,"2013-06-11",1686565218.26,"2013-06-11T10:20:18.26",19443,"2013-03-26",1679882440.39,"2013-03-26T02:00:40.39"],[626,"01-709-1217",19421,"2013-03-04",1678059760.01,"2013-03-04T23:42:40.01",19520,"2013-06-11",1686580778.86,"2013-06-11T14:39:38.86",19505,"2013-05-27",1685298252.88,"2013-05-27T18:24:12.88"],[627,"01-709-1238",19493,"2013-05-15",1684209275.31,"2013-05-15T03:54:35.31",19576,"2013-08-06",1691380388.55,"2013-08-06T03:53:08.55",19506,"2013-05-28",1685360585.24,"2013-05-28T11:43:05.24"],[628,"01-709-1238",19493,"2013-05-15",1684208332.65,"2013-05-15T03:38:52.65",19576,"2013-08-06",1691430293.97,"2013-08-06T17:44:53.97",19508,"2013-05-30",1685527603.81,"2013-05-30T10:06:43.81"],[629,"01-709-1238",19493,"2013-05-15",1684241415.66,"2013-05-15T12:50:15.66",19576,"2013-08-06",1691441592.06,"2013-08-06T20:53:12.06",19508,"2013-05-30",1685554626.16,"2013-05-30T17:37:06.16"],[630,"01-709-1238",19493,"2013-05-15",1684249586.09,"2013-05-15T15:06:26.09",19576,"2013-08-06",1691368950.7,"2013-08-06T00:42:30.70",19508,"2013-05-30",1685567001.25,"2013-05-30T21:03:21.25"],[631,"01-709-1238",19493,"2013-05-15",1684263693.95,"2013-05-15T19:01:33.95",19576,"2013-08-06",1691375654.27,"2013-08-06T02:34:14.27",19509,"2013-05-31",1685606868.71,"2013-05-31T08:07:48.71"],[632,"01-709-1238",19493,"2013-05-15",1684223281.1,"2013-05-15T07:48:01.10",19576,"2013-08-06",1691408242.83,"2013-08-06T11:37:22.83",19518,"2013-06-09",1686431719.7,"2013-06-09T21:15:19.70"],[633,"01-709-1238",19493,"2013-05-15",1684269142.96,"2013-05-15T20:32:22.96",19576,"2013-08-06",1691372318.89,"2013-08-06T01:38:38.89",19518,"2013-06-09",1686388096.07,"2013-06-09T09:08:16.07"],[634,"01-709-1238",19493,"2013-05-15",1684207812.03,"2013-05-15T03:30:12.03",19576,"2013-08-06",1691393057.59,"2013-08-06T07:24:17.59",19537,"2013-06-28",1688039550.64,"2013-06-28T11:52:30.64"],[635,"01-709-1259",19384,"2013-01-26",1674799250.46,"2013-01-26T06:00:50.46",19522,"2013-06-13",1686752268.55,"2013-06-13T14:17:48.55",19394,"2013-02-05",1675641771.45,"2013-02-05T00:02:51.45"],[636,"01-709-1259",19384,"2013-01-26",1674796339.65,"2013-01-26T05:12:19.65",19522,"2013-06-13",1686755366.79,"2013-06-13T15:09:26.79",19394,"2013-02-05",1675682332.83,"2013-02-05T11:18:52.83"],[637,"01-709-1259",19384,"2013-01-26",1674806490.42,"2013-01-26T08:01:30.42",19522,"2013-06-13",1686750131.77,"2013-06-13T13:42:11.77",19431,"2013-03-14",1678861590.95,"2013-03-14T06:26:30.95"],[638,"01-709-1259",19384,"2013-01-26",1674815352.27,"2013-01-26T10:29:12.27",19522,"2013-06-13",1686785381.39,"2013-06-13T23:29:41.39",19434,"2013-03-17",1679102208,"2013-03-17T01:16:48.00"],[639,"01-709-1259",19384,"2013-01-26",1674813879.07,"2013-01-26T10:04:39.07",19522,"2013-06-13",1686766710.37,"2013-06-13T18:18:30.37",19434,"2013-03-17",1679145684.57,"2013-03-17T13:21:24.57"],[640,"01-709-1259",19384,"2013-01-26",1674780960.75,"2013-01-26T00:56:00.75",19522,"2013-06-13",1686715768.18,"2013-06-13T04:09:28.18",19434,"2013-03-17",1679138910.63,"2013-03-17T11:28:30.63"],[641,"01-709-1259",19384,"2013-01-26",1674853565.22,"2013-01-26T21:06:05.22",19522,"2013-06-13",1686738356.28,"2013-06-13T10:25:56.28",19461,"2013-04-13",1681493991.75,"2013-04-13T17:39:51.75"],[642,"01-709-1259",19384,"2013-01-26",1674837348.36,"2013-01-26T16:35:48.36",19522,"2013-06-13",1686752199.35,"2013-06-13T14:16:39.35",19461,"2013-04-13",1681489538.63,"2013-04-13T16:25:38.63"],[643,"01-709-1259",19384,"2013-01-26",1674827464.49,"2013-01-26T13:51:04.49",19522,"2013-06-13",1686704041.34,"2013-06-13T00:54:01.34",19461,"2013-04-13",1681432829.33,"2013-04-13T00:40:29.33"],[644,"01-709-1259",19384,"2013-01-26",1674821190.52,"2013-01-26T12:06:30.52",19522,"2013-06-13",1686740482.08,"2013-06-13T11:01:22.08",19468,"2013-04-20",1682061664.9,"2013-04-20T07:21:04.90"],[645,"01-709-1259",19384,"2013-01-26",1674818921.59,"2013-01-26T11:28:41.59",19522,"2013-06-13",1686775478.79,"2013-06-13T20:44:38.79",19468,"2013-04-20",1682044645.83,"2013-04-20T02:37:25.83"],[646,"01-709-1285",19441,"2013-03-24",1679710170.87,"2013-03-24T02:09:30.87",19501,"2013-05-23",1684970380.88,"2013-05-23T23:19:40.88",19462,"2013-04-14",1681539882.71,"2013-04-14T06:24:42.71"],[647,"01-709-1285",19441,"2013-03-24",1679743891.3,"2013-03-24T11:31:31.30",19501,"2013-05-23",1684954547.44,"2013-05-23T18:55:47.44",19467,"2013-04-19",1682023574.99,"2013-04-19T20:46:14.99"],[648,"01-709-1285",19441,"2013-03-24",1679786193.02,"2013-03-24T23:16:33.02",19501,"2013-05-23",1684926053.12,"2013-05-23T11:00:53.12",19467,"2013-04-19",1681963214.06,"2013-04-19T04:00:14.06"],[649,"01-709-1285",19441,"2013-03-24",1679728617.22,"2013-03-24T07:16:57.22",19501,"2013-05-23",1684969484.61,"2013-05-23T23:04:44.61",19497,"2013-05-19",1684562836.31,"2013-05-19T06:07:16.31"],[650,"01-709-1285",19441,"2013-03-24",1679735877.4,"2013-03-24T09:17:57.40",19501,"2013-05-23",1684904427.67,"2013-05-23T05:00:27.67",19467,"2013-04-19",1681977423.05,"2013-04-19T07:57:03.05"],[651,"01-709-1285",19441,"2013-03-24",1679779444.21,"2013-03-24T21:24:04.21",19501,"2013-05-23",1684906015.77,"2013-05-23T05:26:55.77",19467,"2013-04-19",1682021205.53,"2013-04-19T20:06:45.53"],[652,"01-709-1301",19558,"2013-07-19",1689861443.68,"2013-07-19T13:57:23.68",19740,"2014-01-17",1705562141.1,"2014-01-17T07:15:41.10",19600,"2013-08-30",1693444302.53,"2013-08-30T01:11:42.53"],[653,"01-709-1306",19757,"2014-02-03",1707028347.64,"2014-02-03T06:32:27.64",19890,"2014-06-16",1718510990.85,"2014-06-16T04:09:50.85",19833,"2014-04-20",1713610878.33,"2014-04-20T11:01:18.33"],[654,"01-709-1306",19757,"2014-02-03",1707004922.2,"2014-02-03T00:02:02.20",19890,"2014-06-16",1718542339.77,"2014-06-16T12:52:19.77",19833,"2014-04-20",1713620322.19,"2014-04-20T13:38:42.19"],[655,"01-709-1306",19757,"2014-02-03",1707006895.02,"2014-02-03T00:34:55.02",19890,"2014-06-16",1718572025.34,"2014-06-16T21:07:05.34",19833,"2014-04-20",1713597466.04,"2014-04-20T07:17:46.04"],[656,"01-709-1306",19757,"2014-02-03",1707018600.81,"2014-02-03T03:50:00.81",19890,"2014-06-16",1718508578.36,"2014-06-16T03:29:38.36",19833,"2014-04-20",1713589194.95,"2014-04-20T04:59:54.95"],[657,"01-709-1306",19757,"2014-02-03",1707021273.61,"2014-02-03T04:34:33.61",19890,"2014-06-16",1718556162.98,"2014-06-16T16:42:42.98",19847,"2014-05-04",1714823278.45,"2014-05-04T11:47:58.45"],[658,"01-709-1306",19757,"2014-02-03",1707040442.45,"2014-02-03T09:54:02.45",19890,"2014-06-16",1718538533.23,"2014-06-16T11:48:53.23",19863,"2014-05-20",1716195229.97,"2014-05-20T08:53:49.97"],[659,"01-709-1306",19757,"2014-02-03",1707026787.03,"2014-02-03T06:06:27.03",19890,"2014-06-16",1718533460.17,"2014-06-16T10:24:20.17",19833,"2014-04-20",1713600652.82,"2014-04-20T08:10:52.82"],[660,"01-709-1306",19757,"2014-02-03",1707063655.04,"2014-02-03T16:20:55.04",19890,"2014-06-16",1718565808.47,"2014-06-16T19:23:28.47",19833,"2014-04-20",1713606687.48,"2014-04-20T09:51:27.48"],[661,"01-709-1306",19757,"2014-02-03",1707058174.53,"2014-02-03T14:49:34.53",19890,"2014-06-16",1718500234.35,"2014-06-16T01:10:34.35",19847,"2014-05-04",1714849796.52,"2014-05-04T19:09:56.52"],[662,"01-709-1309",19528,"2013-06-19",1687291999.54,"2013-06-19T20:13:19.54",19711,"2013-12-19",1703044341.68,"2013-12-19T03:52:21.68",19519,"2013-06-10",1686441907.38,"2013-06-10T00:05:07.38"],[663,"01-709-1309",19528,"2013-06-19",1687287120.38,"2013-06-19T18:52:00.38",19711,"2013-12-19",1703063518.34,"2013-12-19T09:11:58.34",19527,"2013-06-18",1687193513.91,"2013-06-18T16:51:53.91"],[664,"01-709-1309",19528,"2013-06-19",1687291688.35,"2013-06-19T20:08:08.35",19711,"2013-12-19",1703083864.48,"2013-12-19T14:51:04.48",19528,"2013-06-19",1687237130.75,"2013-06-19T04:58:50.75"],[665,"01-709-1309",19528,"2013-06-19",1687254205.16,"2013-06-19T09:43:25.16",19711,"2013-12-19",1703056343.18,"2013-12-19T07:12:23.18",19528,"2013-06-19",1687220874.99,"2013-06-19T00:27:54.99"],[666,"01-709-1309",19528,"2013-06-19",1687225205.28,"2013-06-19T01:40:05.28",19711,"2013-12-19",1703094538.52,"2013-12-19T17:48:58.52",19528,"2013-06-19",1687290946.35,"2013-06-19T19:55:46.35"],[667,"01-709-1309",19528,"2013-06-19",1687239028.65,"2013-06-19T05:30:28.65",19711,"2013-12-19",1703112596.88,"2013-12-19T22:49:56.88",19528,"2013-06-19",1687253951.5,"2013-06-19T09:39:11.50"],[668,"01-709-1309",19528,"2013-06-19",1687301255.7,"2013-06-19T22:47:35.70",19711,"2013-12-19",1703071615.43,"2013-12-19T11:26:55.43",19529,"2013-06-20",1687360964.84,"2013-06-20T15:22:44.84"],[669,"01-709-1309",19528,"2013-06-19",1687271226.71,"2013-06-19T14:27:06.71",19711,"2013-12-19",1703079653,"2013-12-19T13:40:53.00",19535,"2013-06-26",1687873620.7,"2013-06-26T13:47:00.70"],[670,"01-709-1309",19528,"2013-06-19",1687303913.09,"2013-06-19T23:31:53.09",19711,"2013-12-19",1703108029.06,"2013-12-19T21:33:49.06",19540,"2013-07-01",1688290412.94,"2013-07-01T09:33:32.94"],[671,"01-709-1309",19528,"2013-06-19",1687296778.09,"2013-06-19T21:32:58.09",19711,"2013-12-19",1703116484.12,"2013-12-19T23:54:44.12",19519,"2013-06-10",1686500158.98,"2013-06-10T16:15:58.98"],[672,"01-709-1309",19528,"2013-06-19",1687274742.43,"2013-06-19T15:25:42.43",19711,"2013-12-19",1703093825.94,"2013-12-19T17:37:05.94",19540,"2013-07-01",1688315925.06,"2013-07-01T16:38:45.06"],[673,"01-709-1309",19528,"2013-06-19",1687272019.71,"2013-06-19T14:40:19.71",19711,"2013-12-19",1703071718.49,"2013-12-19T11:28:38.49",19543,"2013-07-04",1688577790.89,"2013-07-04T17:23:10.89"],[674,"01-709-1309",19528,"2013-06-19",1687267982.13,"2013-06-19T13:33:02.13",19711,"2013-12-19",1703040752.09,"2013-12-19T02:52:32.09",19527,"2013-06-18",1687135269.79,"2013-06-18T00:41:09.79"],[675,"01-709-1309",19528,"2013-06-19",1687234823.82,"2013-06-19T04:20:23.82",19711,"2013-12-19",1703075691.27,"2013-12-19T12:34:51.27",19567,"2013-07-28",1690645064.66,"2013-07-28T15:37:44.66"],[676,"01-709-1309",19528,"2013-06-19",1687299584.22,"2013-06-19T22:19:44.22",19711,"2013-12-19",1703057319.33,"2013-12-19T07:28:39.33",19607,"2013-09-06",1694065190.53,"2013-09-06T05:39:50.53"],[677,"01-709-1312",19833,"2014-04-20",1713622676.64,"2014-04-20T14:17:56.64",20015,"2014-10-19",1729367278.78,"2014-10-19T19:47:58.78",19860,"2014-05-17",1715939498.6,"2014-05-17T09:51:38.60"],[678,"01-709-1312",19833,"2014-04-20",1713574984.18,"2014-04-20T01:03:04.18",20015,"2014-10-19",1729302613.85,"2014-10-19T01:50:13.85",20015,"2014-10-19",1729331720.57,"2014-10-19T09:55:20.57"],[679,"01-709-1326",19453,"2013-04-05",1680794207.9,"2013-04-05T15:16:47.90",19633,"2013-10-02",1696337798.58,"2013-10-02T12:56:38.58",19479,"2013-05-01",1683012751.97,"2013-05-01T07:32:31.97"],[680,"01-709-1326",19453,"2013-04-05",1680790134.39,"2013-04-05T14:08:54.39",19633,"2013-10-02",1696302675.33,"2013-10-02T03:11:15.33",19479,"2013-05-01",1683031229.76,"2013-05-01T12:40:29.76"],[681,"01-709-1326",19453,"2013-04-05",1680748886.87,"2013-04-05T02:41:26.87",19633,"2013-10-02",1696322334.5,"2013-10-02T08:38:54.50",19499,"2013-05-21",1684783250.76,"2013-05-21T19:20:50.76"],[682,"01-709-1326",19453,"2013-04-05",1680809132.61,"2013-04-05T19:25:32.61",19633,"2013-10-02",1696321015.98,"2013-10-02T08:16:55.98",19499,"2013-05-21",1684729350.49,"2013-05-21T04:22:30.49"],[683,"01-709-1326",19453,"2013-04-05",1680785144.98,"2013-04-05T12:45:44.98",19633,"2013-10-02",1696367906.48,"2013-10-02T21:18:26.48",19516,"2013-06-07",1686229506.51,"2013-06-07T13:05:06.51"],[684,"01-709-1326",19453,"2013-04-05",1680767010.69,"2013-04-05T07:43:30.69",19633,"2013-10-02",1696323353.89,"2013-10-02T08:55:53.89",19551,"2013-07-12",1689252116.48,"2013-07-12T12:41:56.48"],[685,"01-709-1329",19585,"2013-08-15",1692225177.61,"2013-08-15T22:32:57.61",19595,"2013-08-25",1693023606.19,"2013-08-25T04:20:06.19",19595,"2013-08-25",1693056473.48,"2013-08-25T13:27:53.48"],[686,"01-709-1329",19585,"2013-08-15",1692213429.58,"2013-08-15T19:17:09.58",19595,"2013-08-25",1693016218.11,"2013-08-25T02:16:58.11",19595,"2013-08-25",1693084920.36,"2013-08-25T21:22:00.36"],[687,"01-709-1339",19350,"2012-12-23",1671874650.16,"2012-12-23T09:37:30.16",19533,"2013-06-24",1687705250.58,"2013-06-24T15:00:50.58",18932,"2011-11-01",1635763525.73,"2011-11-01T10:45:25.73"],[688,"01-709-1339",19350,"2012-12-23",1671867107.71,"2012-12-23T07:31:47.71",19533,"2013-06-24",1687701841.44,"2013-06-24T14:04:01.44",19490,"2013-05-12",1683974155.06,"2013-05-12T10:35:55.06"],[689,"01-709-1424",19420,"2013-03-03",1677948099.46,"2013-03-03T16:41:39.46",19424,"2013-03-07",1678302942.14,"2013-03-07T19:15:42.14",19424,"2013-03-07",1678265375.79,"2013-03-07T08:49:35.79"],[690,"01-710-1002",19737,"2014-01-14",1705322616.18,"2014-01-14T12:43:36.18",19741,"2014-01-18",1705684695.87,"2014-01-18T17:18:15.87",19739,"2014-01-16",1705497721.05,"2014-01-16T13:22:01.05"],[691,"01-710-1002",19737,"2014-01-14",1705281242.09,"2014-01-14T01:14:02.09",19741,"2014-01-18",1705661395.23,"2014-01-18T10:49:55.23",19739,"2014-01-16",1705494151.27,"2014-01-16T12:22:31.27"],[692,"01-710-1006",19399,"2013-02-10",1676125938.22,"2013-02-10T14:32:18.22",19579,"2013-08-09",1691646120.64,"2013-08-09T05:42:00.64",19407,"2013-02-18",1676850464.3,"2013-02-18T23:47:44.30"],[693,"01-710-1006",19399,"2013-02-10",1676123808.16,"2013-02-10T13:56:48.16",19579,"2013-08-09",1691637324.8,"2013-08-09T03:15:24.80",19418,"2013-03-01",1677751502.07,"2013-03-01T10:05:02.07"],[694,"01-710-1006",19399,"2013-02-10",1676151072.11,"2013-02-10T21:31:12.11",19579,"2013-08-09",1691686350.5,"2013-08-09T16:52:30.50",19418,"2013-03-01",1677796385.57,"2013-03-01T22:33:05.57"],[695,"01-710-1006",19399,"2013-02-10",1676108717.51,"2013-02-10T09:45:17.51",19579,"2013-08-09",1691668409.79,"2013-08-09T11:53:29.79",19464,"2013-04-16",1681768327.89,"2013-04-16T21:52:07.89"],[696,"01-710-1006",19399,"2013-02-10",1676158510.93,"2013-02-10T23:35:10.93",19579,"2013-08-09",1691646942.73,"2013-08-09T05:55:42.73",19465,"2013-04-17",1681802442.26,"2013-04-17T07:20:42.26"],[697,"01-710-1006",19399,"2013-02-10",1676147815.81,"2013-02-10T20:36:55.81",19579,"2013-08-09",1691669204.36,"2013-08-09T12:06:44.36",19465,"2013-04-17",1681783893.19,"2013-04-17T02:11:33.19"],[698,"01-710-1006",19399,"2013-02-10",1676149223.01,"2013-02-10T21:00:23.01",19579,"2013-08-09",1691709455.93,"2013-08-09T23:17:35.93",19496,"2013-05-18",1684468670.79,"2013-05-18T03:57:50.79"],[699,"01-710-1006",19399,"2013-02-10",1676100464.3,"2013-02-10T07:27:44.30",19579,"2013-08-09",1691651792.57,"2013-08-09T07:16:32.57",19538,"2013-06-29",1688140052.59,"2013-06-29T15:47:32.59"],[700,"01-710-1006",19399,"2013-02-10",1676127013.98,"2013-02-10T14:50:13.98",19579,"2013-08-09",1691628819.25,"2013-08-09T00:53:39.25",19538,"2013-06-29",1688111007.14,"2013-06-29T07:43:27.14"],[701,"01-710-1006",19399,"2013-02-10",1676116789.97,"2013-02-10T11:59:49.97",19579,"2013-08-09",1691658258.54,"2013-08-09T09:04:18.54",19578,"2013-08-08",1691589561.43,"2013-08-08T13:59:21.43"],[702,"01-710-1006",19399,"2013-02-10",1676142145.79,"2013-02-10T19:02:25.79",19579,"2013-08-09",1691692997.5,"2013-08-09T18:43:17.50",19578,"2013-08-08",1691542402.88,"2013-08-08T00:53:22.88"],[703,"01-710-1006",19399,"2013-02-10",1676078852.99,"2013-02-10T01:27:32.99",19579,"2013-08-09",1691688124.11,"2013-08-09T17:22:04.11",19578,"2013-08-08",1691600451.3,"2013-08-08T17:00:51.30"],[704,"01-710-1021",19628,"2013-09-27",1695914524.66,"2013-09-27T15:22:04.66",19660,"2013-10-29",1698663461.63,"2013-10-29T10:57:41.63",19641,"2013-10-10",1697048184.73,"2013-10-10T18:16:24.73"],[705,"01-710-1021",19628,"2013-09-27",1695867890.78,"2013-09-27T02:24:50.78",19660,"2013-10-29",1698671331.99,"2013-10-29T13:08:51.99",19652,"2013-10-21",1697975756.64,"2013-10-21T11:55:56.64"],[706,"01-710-1021",19628,"2013-09-27",1695939432.79,"2013-09-27T22:17:12.79",19660,"2013-10-29",1698669238.58,"2013-10-29T12:33:58.58",19652,"2013-10-21",1698002592.83,"2013-10-21T19:23:12.83"],[707,"01-710-1027",19782,"2014-02-28",1709241969.34,"2014-02-28T21:26:09.34",19964,"2014-08-29",1724914045.57,"2014-08-29T06:47:25.57",19852,"2014-05-09",1715246954.77,"2014-05-09T09:29:14.77"],[708,"01-710-1027",19782,"2014-02-28",1709190461.54,"2014-02-28T07:07:41.54",19964,"2014-08-29",1724964987.73,"2014-08-29T20:56:27.73",19866,"2014-05-23",1716443770.79,"2014-05-23T05:56:10.79"],[709,"01-710-1027",19782,"2014-02-28",1709184449.93,"2014-02-28T05:27:29.93",19964,"2014-08-29",1724946149.32,"2014-08-29T15:42:29.32",19852,"2014-05-09",1715251602.15,"2014-05-09T10:46:42.15"],[710,"01-710-1027",19782,"2014-02-28",1709169559.48,"2014-02-28T01:19:19.48",19964,"2014-08-29",1724971370.18,"2014-08-29T22:42:50.18",19866,"2014-05-23",1716430994.27,"2014-05-23T02:23:14.27"],[711,"01-710-1045",19512,"2013-06-03",1685909551.18,"2013-06-03T20:12:31.18",19583,"2013-08-13",1691980155.24,"2013-08-13T02:29:15.24",19531,"2013-06-22",1687517969.43,"2013-06-22T10:59:29.43"],[712,"01-710-1045",19512,"2013-06-03",1685838129.82,"2013-06-03T00:22:09.82",19583,"2013-08-13",1691990732.99,"2013-08-13T05:25:32.99",19541,"2013-07-02",1688411777.53,"2013-07-02T19:16:17.53"],[713,"01-710-1045",19512,"2013-06-03",1685850368.74,"2013-06-03T03:46:08.74",19583,"2013-08-13",1691997652.56,"2013-08-13T07:20:52.56",19541,"2013-07-02",1688389570.34,"2013-07-02T13:06:10.34"],[714,"01-710-1045",19512,"2013-06-03",1685865051.59,"2013-06-03T07:50:51.59",19583,"2013-08-13",1691975740.12,"2013-08-13T01:15:40.12",19541,"2013-07-02",1688390035.47,"2013-07-02T13:13:55.47"],[715,"01-710-1045",19512,"2013-06-03",1685898229.05,"2013-06-03T17:03:49.05",19583,"2013-08-13",1691996547.5,"2013-08-13T07:02:27.50",19541,"2013-07-02",1688355769.68,"2013-07-02T03:42:49.68"],[716,"01-710-1045",19512,"2013-06-03",1685840791,"2013-06-03T01:06:31.00",19583,"2013-08-13",1692011406.08,"2013-08-13T11:10:06.08",19561,"2013-07-22",1690120746.86,"2013-07-22T13:59:06.86"],[717,"01-710-1045",19512,"2013-06-03",1685910941.05,"2013-06-03T20:35:41.05",19583,"2013-08-13",1692042538.19,"2013-08-13T19:48:58.19",19573,"2013-08-03",1691135477.3,"2013-08-03T07:51:17.30"],[718,"01-710-1045",19512,"2013-06-03",1685864271.58,"2013-06-03T07:37:51.58",19583,"2013-08-13",1692033347.61,"2013-08-13T17:15:47.61",19583,"2013-08-13",1692038443.57,"2013-08-13T18:40:43.57"],[719,"01-710-1045",19512,"2013-06-03",1685897081.22,"2013-06-03T16:44:41.22",19583,"2013-08-13",1692006503.57,"2013-08-13T09:48:23.57",19541,"2013-07-02",1688409913.47,"2013-07-02T18:45:13.47"],[720,"01-710-1045",19512,"2013-06-03",1685913400.78,"2013-06-03T21:16:40.78",19583,"2013-08-13",1692033360.15,"2013-08-13T17:16:00.15",19541,"2013-07-02",1688427968.8,"2013-07-02T23:46:08.80"],[721,"01-710-1045",19512,"2013-06-03",1685899558.21,"2013-06-03T17:25:58.21",19583,"2013-08-13",1691978185.51,"2013-08-13T01:56:25.51",19561,"2013-07-22",1690112108.8,"2013-07-22T11:35:08.80"],[722,"01-710-1045",19512,"2013-06-03",1685866496.94,"2013-06-03T08:14:56.94",19583,"2013-08-13",1692049376.65,"2013-08-13T21:42:56.65",19573,"2013-08-03",1691180409.79,"2013-08-03T20:20:09.79"],[723,"01-710-1045",19512,"2013-06-03",1685870906.29,"2013-06-03T09:28:26.29",19583,"2013-08-13",1692056604.45,"2013-08-13T23:43:24.45",19583,"2013-08-13",1692009238.22,"2013-08-13T10:33:58.22"],[724,"01-710-1053",19353,"2012-12-26",1672122387.08,"2012-12-26T06:26:27.08",19399,"2013-02-10",1676140748.28,"2013-02-10T18:39:08.28",19386,"2013-01-28",1674978882.5,"2013-01-28T07:54:42.50"],[725,"01-710-1053",19353,"2012-12-26",1672149173.56,"2012-12-26T13:52:53.56",19399,"2013-02-10",1676128218.34,"2013-02-10T15:10:18.34",19386,"2013-01-28",1674980823.7,"2013-01-28T08:27:03.70"],[726,"01-710-1053",19353,"2012-12-26",1672145458.18,"2012-12-26T12:50:58.18",19399,"2013-02-10",1676116726.93,"2013-02-10T11:58:46.93",19386,"2013-01-28",1674974408.98,"2013-01-28T06:40:08.98"],[727,"01-710-1053",19353,"2012-12-26",1672131545.36,"2012-12-26T08:59:05.36",19399,"2013-02-10",1676116516.99,"2013-02-10T11:55:16.99",19386,"2013-01-28",1675004934.33,"2013-01-28T15:08:54.33"],[728,"01-710-1060",19359,"2013-01-01",1672645260.6,"2013-01-01T07:41:00.60",19544,"2013-07-05",1688651259.56,"2013-07-05T13:47:39.56",19360,"2013-01-02",1672730069,"2013-01-02T07:14:29.00"],[729,"01-710-1060",19359,"2013-01-01",1672685391.91,"2013-01-01T18:49:51.91",19544,"2013-07-05",1688647757.05,"2013-07-05T12:49:17.05",19362,"2013-01-04",1672894589.53,"2013-01-04T04:56:29.53"],[730,"01-710-1060",19359,"2013-01-01",1672624266.01,"2013-01-01T01:51:06.01",19544,"2013-07-05",1688669385.44,"2013-07-05T18:49:45.44",19362,"2013-01-04",1672929879.43,"2013-01-04T14:44:39.43"],[731,"01-710-1060",19359,"2013-01-01",1672690942.33,"2013-01-01T20:22:22.33",19544,"2013-07-05",1688662839.96,"2013-07-05T17:00:39.96",19379,"2013-01-21",1674372241.88,"2013-01-21T07:24:01.88"],[732,"01-710-1060",19359,"2013-01-01",1672645461.96,"2013-01-01T07:44:21.96",19544,"2013-07-05",1688629624.83,"2013-07-05T07:47:04.83",19381,"2013-01-23",1674544103.31,"2013-01-23T07:08:23.31"],[733,"01-710-1060",19359,"2013-01-01",1672635420.01,"2013-01-01T04:57:00.01",19544,"2013-07-05",1688658997.13,"2013-07-05T15:56:37.13",19389,"2013-01-31",1675285122.25,"2013-01-31T20:58:42.25"],[734,"01-710-1060",19359,"2013-01-01",1672676668.68,"2013-01-01T16:24:28.68",19544,"2013-07-05",1688618282.66,"2013-07-05T04:38:02.66",19397,"2013-02-08",1675964366.28,"2013-02-08T17:39:26.28"],[735,"01-710-1060",19359,"2013-01-01",1672633264.23,"2013-01-01T04:21:04.23",19544,"2013-07-05",1688678717.29,"2013-07-05T21:25:17.29",19398,"2013-02-09",1676048300.63,"2013-02-09T16:58:20.63"],[736,"01-710-1070",19244,"2012-09-08",1662753308.78,"2012-09-08T19:55:08.78",19380,"2013-01-22",1674473132.38,"2013-01-22T11:25:32.38",19272,"2012-10-06",1665108849.94,"2012-10-06T02:14:09.94"],[737,"01-710-1070",19244,"2012-09-08",1662705399.57,"2012-09-08T06:36:39.57",19380,"2013-01-22",1674490068.37,"2013-01-22T16:07:48.37",19339,"2012-12-12",1670953465.27,"2012-12-12T17:44:25.27"],[738,"01-710-1070",19244,"2012-09-08",1662715047.81,"2012-09-08T09:17:27.81",19380,"2013-01-22",1674474290.51,"2013-01-22T11:44:50.51",19339,"2012-12-12",1670918080.75,"2012-12-12T07:54:40.75"],[739,"01-710-1070",19244,"2012-09-08",1662704005.45,"2012-09-08T06:13:25.45",19380,"2013-01-22",1674476134.64,"2013-01-22T12:15:34.64",19339,"2012-12-12",1670902210.58,"2012-12-12T03:30:10.58"],[740,"01-710-1070",19244,"2012-09-08",1662702563.55,"2012-09-08T05:49:23.55",19380,"2013-01-22",1674450307.55,"2013-01-22T05:05:07.55",19380,"2013-01-22",1674477877.49,"2013-01-22T12:44:37.49"],[741,"01-710-1070",19244,"2012-09-08",1662730236.46,"2012-09-08T13:30:36.46",19380,"2013-01-22",1674514291.28,"2013-01-22T22:51:31.28",19394,"2013-02-05",1675666818.01,"2013-02-05T07:00:18.01"],[742,"01-710-1077",19679,"2013-11-17",1700334475.59,"2013-11-17T19:07:55.59",19861,"2014-05-18",1716024536.5,"2014-05-18T09:28:56.50",19704,"2013-12-12",1702485471.79,"2013-12-12T16:37:51.79"],[743,"01-710-1077",19679,"2013-11-17",1700280423.89,"2013-11-17T04:07:03.89",19861,"2014-05-18",1716072707.75,"2014-05-18T22:51:47.75",19719,"2013-12-27",1703757872.77,"2013-12-27T10:04:32.77"],[744,"01-710-1077",19679,"2013-11-17",1700306672.75,"2013-11-17T11:24:32.75",19861,"2014-05-18",1716058410.51,"2014-05-18T18:53:30.51",19735,"2014-01-12",1705137738.28,"2014-01-12T09:22:18.28"],[745,"01-710-1077",19679,"2013-11-17",1700303108.3,"2013-11-17T10:25:08.30",19861,"2014-05-18",1716015989.77,"2014-05-18T07:06:29.77",null,".",null,"."],[746,"01-710-1077",19679,"2013-11-17",1700336420.25,"2013-11-17T19:40:20.25",19861,"2014-05-18",1716052654.22,"2014-05-18T17:17:34.22",null,".",null,"."],[747,"01-710-1083",19561,"2013-07-22",1690140468.19,"2013-07-22T19:27:48.19",19571,"2013-08-01",1690955357.33,"2013-08-01T05:49:17.33",19572,"2013-08-02",1691082012.68,"2013-08-02T17:00:12.68"],[748,"01-710-1137",19642,"2013-10-11",1697094572.68,"2013-10-11T07:09:32.68",19675,"2013-11-13",1699965641.53,"2013-11-13T12:40:41.53",19644,"2013-10-13",1697269889.79,"2013-10-13T07:51:29.79"],[749,"01-710-1137",19642,"2013-10-11",1697147120.2,"2013-10-11T21:45:20.20",19675,"2013-11-13",1699963236.52,"2013-11-13T12:00:36.52",19644,"2013-10-13",1697269782.56,"2013-10-13T07:49:42.56"],[750,"01-710-1137",19642,"2013-10-11",1697141624.37,"2013-10-11T20:13:44.37",19675,"2013-11-13",1699998821.76,"2013-11-13T21:53:41.76",19666,"2013-11-04",1699213750.19,"2013-11-04T19:49:10.19"],[751,"01-710-1137",19642,"2013-10-11",1697075155.42,"2013-10-11T01:45:55.42",19675,"2013-11-13",1700005219.83,"2013-11-13T23:40:19.83",19675,"2013-11-13",1700003200.85,"2013-11-13T23:06:40.85"],[752,"01-710-1142",19268,"2012-10-02",1664840674.31,"2012-10-02T23:44:34.31",19286,"2012-10-20",1666389742.38,"2012-10-20T22:02:22.38",19270,"2012-10-04",1664962938.51,"2012-10-04T09:42:18.51"],[753,"01-710-1142",19268,"2012-10-02",1664839586.88,"2012-10-02T23:26:26.88",19286,"2012-10-20",1666388956.22,"2012-10-20T21:49:16.22",19270,"2012-10-04",1664974396.83,"2012-10-04T12:53:16.83"],[754,"01-710-1142",19268,"2012-10-02",1664807252.27,"2012-10-02T14:27:32.27",19286,"2012-10-20",1666315320.35,"2012-10-20T01:22:00.35",19280,"2012-10-14",1665823938.18,"2012-10-14T08:52:18.18"],[755,"01-710-1142",19268,"2012-10-02",1664833395.61,"2012-10-02T21:43:15.61",19286,"2012-10-20",1666335503.61,"2012-10-20T06:58:23.61",19285,"2012-10-19",1666252603.19,"2012-10-19T07:56:43.19"],[756,"01-710-1142",19268,"2012-10-02",1664775098.8,"2012-10-02T05:31:38.80",19286,"2012-10-20",1666369214.44,"2012-10-20T16:20:14.44",19285,"2012-10-19",1666294797.5,"2012-10-19T19:39:57.50"],[757,"01-710-1154",19811,"2014-03-29",1711685180.11,"2014-03-29T04:06:20.11",19840,"2014-04-27",1714211621.84,"2014-04-27T09:53:41.84",19831,"2014-04-18",1713411100.47,"2014-04-18T03:31:40.47"],[758,"01-710-1154",19811,"2014-03-29",1711689481.88,"2014-03-29T05:18:01.88",19840,"2014-04-27",1714232551.18,"2014-04-27T15:42:31.18",19831,"2014-04-18",1713462078.99,"2014-04-18T17:41:18.99"],[759,"01-710-1166",19327,"2012-11-30",1669877301.78,"2012-11-30T06:48:21.78",19436,"2013-03-19",1679315296.49,"2013-03-19T12:28:16.49",19436,"2013-03-19",1679323160.99,"2013-03-19T14:39:20.99"],[760,"01-710-1166",19327,"2012-11-30",1669892361.89,"2012-11-30T10:59:21.89",19436,"2013-03-19",1679345598,"2013-03-19T20:53:18.00",19436,"2013-03-19",1679279955.05,"2013-03-19T02:39:15.05"],[761,"01-710-1166",19327,"2012-11-30",1669929993.85,"2012-11-30T21:26:33.85",19436,"2013-03-19",1679327839.22,"2013-03-19T15:57:19.22",19436,"2013-03-19",1679355292.07,"2013-03-19T23:34:52.07"],[762,"01-710-1166",19327,"2012-11-30",1669900444.89,"2012-11-30T13:14:04.89",19436,"2013-03-19",1679351177.53,"2013-03-19T22:26:17.53",19436,"2013-03-19",1679333148.31,"2013-03-19T17:25:48.31"],[763,"01-710-1166",19327,"2012-11-30",1669923922.07,"2012-11-30T19:45:22.07",19436,"2013-03-19",1679302181.12,"2013-03-19T08:49:41.12",19437,"2013-03-20",1679424559.89,"2013-03-20T18:49:19.89"],[764,"01-710-1183",19678,"2013-11-16",1700246032.94,"2013-11-16T18:33:52.94",19860,"2014-05-17",1715950192.81,"2014-05-17T12:49:52.81",19792,"2014-03-10",1710099071.27,"2014-03-10T19:31:11.27"],[765,"01-710-1183",19678,"2013-11-16",1700254644.69,"2013-11-16T20:57:24.69",19860,"2014-05-17",1715966904.95,"2014-05-17T17:28:24.95",19792,"2014-03-10",1710047387.93,"2014-03-10T05:09:47.93"],[766,"01-710-1187",19307,"2012-11-10",1668206897.84,"2012-11-10T22:48:17.84",19490,"2013-05-12",1684021733.41,"2013-05-12T23:48:53.41",19350,"2012-12-23",1671845942.49,"2012-12-23T01:39:02.49"],[767,"01-710-1235",19262,"2012-09-26",1664302645.56,"2012-09-26T18:17:25.56",19444,"2013-03-27",1679990101.04,"2013-03-27T07:55:01.04",19319,"2012-11-22",1669239824.94,"2012-11-22T21:43:44.94"],[768,"01-710-1235",19262,"2012-09-26",1664249228.6,"2012-09-26T03:27:08.60",19444,"2013-03-27",1679962279.15,"2013-03-27T00:11:19.15",19371,"2013-01-13",1673693012.56,"2013-01-13T10:43:32.56"],[769,"01-710-1235",19262,"2012-09-26",1664317775.83,"2012-09-26T22:29:35.83",19444,"2013-03-27",1679982647.46,"2013-03-27T05:50:47.46",19387,"2013-01-29",1675109789.07,"2013-01-29T20:16:29.07"],[770,"01-710-1249",19720,"2013-12-28",1703817288.15,"2013-12-28T02:34:48.15",19902,"2014-06-28",1719608235.07,"2014-06-28T20:57:15.07",19765,"2014-02-11",1707756344.39,"2014-02-11T16:45:44.39"],[771,"01-710-1249",19720,"2013-12-28",1703829380.1,"2013-12-28T05:56:20.10",19902,"2014-06-28",1719533660.4,"2014-06-28T00:14:20.40",19772,"2014-02-18",1708313641.8,"2014-02-18T03:34:01.80"],[772,"01-710-1249",19720,"2013-12-28",1703826054.21,"2013-12-28T05:00:54.21",19902,"2014-06-28",1719579378.83,"2014-06-28T12:56:18.83",19777,"2014-02-23",1708759507.82,"2014-02-23T07:25:07.82"],[773,"01-710-1249",19720,"2013-12-28",1703851065.31,"2013-12-28T11:57:45.31",19902,"2014-06-28",1719547923.74,"2014-06-28T04:12:03.74",19837,"2014-04-24",1713950843.97,"2014-04-24T09:27:23.97"],[774,"01-710-1264",19522,"2013-06-13",1686741458.3,"2013-06-13T11:17:38.30",19642,"2013-10-11",1697094864.18,"2013-10-11T07:14:24.18",19542,"2013-07-03",1688459674.93,"2013-07-03T08:34:34.93"],[775,"01-710-1264",19522,"2013-06-13",1686723645.99,"2013-06-13T06:20:45.99",19642,"2013-10-11",1697127585.7,"2013-10-11T16:19:45.70",19591,"2013-08-21",1692744487.51,"2013-08-21T22:48:07.51"],[776,"01-710-1264",19522,"2013-06-13",1686733532.99,"2013-06-13T09:05:32.99",19642,"2013-10-11",1697151674.78,"2013-10-11T23:01:14.78",19591,"2013-08-21",1692746956.58,"2013-08-21T23:29:16.58"],[777,"01-710-1264",19522,"2013-06-13",1686741212.52,"2013-06-13T11:13:32.52",19642,"2013-10-11",1697073203.24,"2013-10-11T01:13:23.24",19630,"2013-09-29",1696078070.26,"2013-09-29T12:47:50.26"],[778,"01-710-1264",19522,"2013-06-13",1686784160.96,"2013-06-13T23:09:20.96",19642,"2013-10-11",1697148493.88,"2013-10-11T22:08:13.88",19630,"2013-09-29",1696035427.8,"2013-09-29T00:57:07.80"],[779,"01-710-1264",19522,"2013-06-13",1686710378.17,"2013-06-13T02:39:38.17",19642,"2013-10-11",1697094974.96,"2013-10-11T07:16:14.96",19640,"2013-10-09",1696911508.98,"2013-10-09T04:18:28.98"],[780,"01-710-1264",19522,"2013-06-13",1686738236.94,"2013-06-13T10:23:56.94",19642,"2013-10-11",1697121652.48,"2013-10-11T14:40:52.48",19640,"2013-10-09",1696897312.6,"2013-10-09T00:21:52.60"],[781,"01-710-1264",19522,"2013-06-13",1686720267.71,"2013-06-13T05:24:27.71",19642,"2013-10-11",1697092076.69,"2013-10-11T06:27:56.69",19642,"2013-10-11",1697073649.57,"2013-10-11T01:20:49.57"],[782,"01-710-1264",19522,"2013-06-13",1686754913.54,"2013-06-13T15:01:53.54",19642,"2013-10-11",1697144047.11,"2013-10-11T20:54:07.11",19642,"2013-10-11",1697086167.34,"2013-10-11T04:49:27.34"],[783,"01-710-1270",19766,"2014-02-12",1707868110.12,"2014-02-12T23:48:30.12",19783,"2014-03-01",1709305340.43,"2014-03-01T15:02:20.43",19777,"2014-02-23",1708782331.32,"2014-02-23T13:45:31.32"],[784,"01-710-1270",19766,"2014-02-12",1707783214.27,"2014-02-12T00:13:34.27",19783,"2014-03-01",1709328412.45,"2014-03-01T21:26:52.45",19777,"2014-02-23",1708776823.11,"2014-02-23T12:13:43.11"],[785,"01-710-1271",19263,"2012-09-27",1664385517.64,"2012-09-27T17:18:37.64",19318,"2012-11-21",1669140648.42,"2012-11-21T18:10:48.42",19318,"2012-11-21",1669084017.58,"2012-11-21T02:26:57.58"],[786,"01-710-1271",19263,"2012-09-27",1664375638.35,"2012-09-27T14:33:58.35",19318,"2012-11-21",1669137676.2,"2012-11-21T17:21:16.20",19318,"2012-11-21",1669117862.21,"2012-11-21T11:51:02.21"],[787,"01-710-1271",19263,"2012-09-27",1664327679.73,"2012-09-27T01:14:39.73",19318,"2012-11-21",1669093341.72,"2012-11-21T05:02:21.72",19318,"2012-11-21",1669153150.17,"2012-11-21T21:39:10.17"],[788,"01-710-1271",19263,"2012-09-27",1664388913.48,"2012-09-27T18:15:13.48",19318,"2012-11-21",1669097347.34,"2012-11-21T06:09:07.34",19319,"2012-11-22",1669190121.04,"2012-11-22T07:55:21.04"],[789,"01-710-1271",19263,"2012-09-27",1664351605.09,"2012-09-27T07:53:25.09",19318,"2012-11-21",1669140518.82,"2012-11-21T18:08:38.82",19319,"2012-11-22",1669192632.13,"2012-11-22T08:37:12.13"],[790,"01-710-1278",19351,"2012-12-24",1672000427.5,"2012-12-24T20:33:47.50",19415,"2013-02-26",1677522104.64,"2013-02-26T18:21:44.64",19371,"2013-01-13",1673674267.2,"2013-01-13T05:31:07.20"],[791,"01-710-1278",19351,"2012-12-24",1671933183.24,"2012-12-24T01:53:03.24",19415,"2013-02-26",1677498893.51,"2013-02-26T11:54:53.51",19396,"2013-02-07",1675843282.4,"2013-02-07T08:01:22.40"],[792,"01-710-1278",19351,"2012-12-24",1671967456.39,"2012-12-24T11:24:16.39",19415,"2013-02-26",1677530537.98,"2013-02-26T20:42:17.98",19413,"2013-02-24",1677338259.1,"2013-02-24T15:17:39.10"],[793,"01-710-1278",19351,"2012-12-24",1671982963.55,"2012-12-24T15:42:43.55",19415,"2013-02-26",1677470931.77,"2013-02-26T04:08:51.77",19413,"2013-02-24",1677288954.42,"2013-02-24T01:35:54.42"],[794,"01-710-1278",19351,"2012-12-24",1671986525.23,"2012-12-24T16:42:05.23",19415,"2013-02-26",1677538223.13,"2013-02-26T22:50:23.13",19419,"2013-03-02",1677848937.26,"2013-03-02T13:08:57.26"],[795,"01-710-1278",19351,"2012-12-24",1671982378.62,"2012-12-24T15:32:58.62",19415,"2013-02-26",1677489674.09,"2013-02-26T09:21:14.09",19396,"2013-02-07",1675897187.4,"2013-02-07T22:59:47.40"],[796,"01-710-1278",19351,"2012-12-24",1671991593.19,"2012-12-24T18:06:33.19",19415,"2013-02-26",1677519831.1,"2013-02-26T17:43:51.10",19413,"2013-02-24",1677361566.04,"2013-02-24T21:46:06.04"],[797,"01-710-1300",19342,"2012-12-15",1671214374.52,"2012-12-15T18:12:54.52",19404,"2013-02-15",1676528117.4,"2013-02-15T06:15:17.40",19389,"2013-01-31",1675267978.88,"2013-01-31T16:12:58.88"],[798,"01-710-1300",19342,"2012-12-15",1671201208.15,"2012-12-15T14:33:28.15",19404,"2013-02-15",1676564666.58,"2013-02-15T16:24:26.58",19399,"2013-02-10",1676117305.22,"2013-02-10T12:08:25.22"],[799,"01-710-1300",19342,"2012-12-15",1671178279.62,"2012-12-15T08:11:19.62",19404,"2013-02-15",1676565593.28,"2013-02-15T16:39:53.28",19399,"2013-02-10",1676096817.88,"2013-02-10T06:26:57.88"],[800,"01-710-1300",19342,"2012-12-15",1671204882.2,"2012-12-15T15:34:42.20",19404,"2013-02-15",1676573411.99,"2013-02-15T18:50:11.99",19402,"2013-02-13",1676414970.75,"2013-02-13T22:49:30.75"],[801,"01-710-1314",19472,"2013-04-24",1682433705.6,"2013-04-24T14:41:45.60",19501,"2013-05-23",1684968461.34,"2013-05-23T22:47:41.34",19498,"2013-05-20",1684690685.18,"2013-05-20T17:38:05.18"],[802,"01-710-1314",19472,"2013-04-24",1682422179.35,"2013-04-24T11:29:39.35",19501,"2013-05-23",1684932035.23,"2013-05-23T12:40:35.23",19498,"2013-05-20",1684644317.59,"2013-05-20T04:45:17.59"],[803,"01-710-1315",19416,"2013-02-27",1677603083.24,"2013-02-27T16:51:23.24",19545,"2013-07-06",1688752596.74,"2013-07-06T17:56:36.74",19415,"2013-02-26",1677456350.04,"2013-02-26T00:05:50.04"],[804,"01-710-1315",19416,"2013-02-27",1677581758.49,"2013-02-27T10:55:58.49",19545,"2013-07-06",1688716913.48,"2013-07-06T08:01:53.48",19492,"2013-05-14",1684143716.47,"2013-05-14T09:41:56.47"],[805,"01-710-1315",19416,"2013-02-27",1677605108.73,"2013-02-27T17:25:08.73",19545,"2013-07-06",1688750469.04,"2013-07-06T17:21:09.04",19527,"2013-06-18",1687154157.74,"2013-06-18T05:55:57.74"],[806,"01-710-1315",19416,"2013-02-27",1677561159.18,"2013-02-27T05:12:39.18",19545,"2013-07-06",1688766887.59,"2013-07-06T21:54:47.59",19527,"2013-06-18",1687187586.48,"2013-06-18T15:13:06.48"],[807,"01-710-1315",19416,"2013-02-27",1677551523.15,"2013-02-27T02:32:03.15",19545,"2013-07-06",1688707774.21,"2013-07-06T05:29:34.21",19492,"2013-05-14",1684186664.31,"2013-05-14T21:37:44.31"],[808,"01-710-1315",19416,"2013-02-27",1677609241.87,"2013-02-27T18:34:01.87",19545,"2013-07-06",1688763010.83,"2013-07-06T20:50:10.83",19527,"2013-06-18",1687198766.45,"2013-06-18T18:19:26.45"],[809,"01-710-1315",19416,"2013-02-27",1677610235.2,"2013-02-27T18:50:35.20",19545,"2013-07-06",1688700856.88,"2013-07-06T03:34:16.88",19527,"2013-06-18",1687190751.33,"2013-06-18T16:05:51.33"],[810,"01-710-1354",19308,"2012-11-11",1668252494.33,"2012-11-11T11:28:14.33",19479,"2013-05-01",1683059042.47,"2013-05-01T20:24:02.47",19357,"2012-12-30",1672471530.24,"2012-12-30T07:25:30.24"],[811,"01-710-1354",19308,"2012-11-11",1668294044.56,"2012-11-11T23:00:44.56",19479,"2013-05-01",1683066279.33,"2013-05-01T22:24:39.33",19403,"2013-02-14",1676470478.31,"2013-02-14T14:14:38.31"],[812,"01-710-1358",19253,"2012-09-17",1663510752.08,"2012-09-17T14:19:12.08",19398,"2013-02-09",1676041037.47,"2013-02-09T14:57:17.47",19349,"2012-12-22",1671798774.88,"2012-12-22T12:32:54.88"],[813,"01-710-1358",19253,"2012-09-17",1663478827.44,"2012-09-17T05:27:07.44",19398,"2013-02-09",1676046464,"2013-02-09T16:27:44.00",19349,"2012-12-22",1671838213.96,"2012-12-22T23:30:13.96"],[814,"01-710-1358",19253,"2012-09-17",1663543414.74,"2012-09-17T23:23:34.74",19398,"2013-02-09",1676057954.83,"2013-02-09T19:39:14.83",19382,"2013-01-24",1674651279.57,"2013-01-24T12:54:39.57"],[815,"01-710-1368",19654,"2013-10-23",1698161824.47,"2013-10-23T15:37:04.47",19837,"2014-04-24",1713936469.3,"2014-04-24T05:27:49.30",19717,"2013-12-25",1703618539.58,"2013-12-25T19:22:19.58"],[816,"01-710-1368",19654,"2013-10-23",1698148661.37,"2013-10-23T11:57:41.37",19837,"2014-04-24",1713925817.48,"2014-04-24T02:30:17.48",19808,"2014-03-26",1711464149.08,"2014-03-26T14:42:29.08"],[817,"01-710-1368",19654,"2013-10-23",1698143486.29,"2013-10-23T10:31:26.29",19837,"2014-04-24",1713921277.81,"2014-04-24T01:14:37.81",19808,"2014-03-26",1711439252.43,"2014-03-26T07:47:32.43"],[818,"01-710-1368",19654,"2013-10-23",1698109690.48,"2013-10-23T01:08:10.48",19837,"2014-04-24",1713982237.01,"2014-04-24T18:10:37.01",19717,"2013-12-25",1703606910.3,"2013-12-25T16:08:30.30"],[819,"01-710-1385",19295,"2012-10-29",1667104860.7,"2012-10-29T04:41:00.70",19407,"2013-02-18",1676831747.54,"2013-02-18T18:35:47.54",19309,"2012-11-12",1668354008.55,"2012-11-12T15:40:08.55"],[820,"01-710-1385",19295,"2012-10-29",1667111893.41,"2012-10-29T06:38:13.41",19407,"2013-02-18",1676837693.98,"2013-02-18T20:14:53.98",19309,"2012-11-12",1668332242.91,"2012-11-12T09:37:22.91"],[821,"01-710-1385",19295,"2012-10-29",1667113962.14,"2012-10-29T07:12:42.14",19407,"2013-02-18",1676825085.78,"2013-02-18T16:44:45.78",19323,"2012-11-26",1669537905.35,"2012-11-26T08:31:45.35"],[822,"01-710-1385",19295,"2012-10-29",1667128083.42,"2012-10-29T11:08:03.42",19407,"2013-02-18",1676841415.51,"2013-02-18T21:16:55.51",19345,"2012-12-18",1671436954.69,"2012-12-18T08:02:34.69"],[823,"01-710-1385",19295,"2012-10-29",1667167064.6,"2012-10-29T21:57:44.60",19407,"2013-02-18",1676796248.21,"2013-02-18T08:44:08.21",19354,"2012-12-27",1672246107.5,"2012-12-27T16:48:27.50"],[824,"01-710-1385",19295,"2012-10-29",1667150283.93,"2012-10-29T17:18:03.93",19407,"2013-02-18",1676819173.82,"2013-02-18T15:06:13.82",19354,"2012-12-27",1672189627.56,"2012-12-27T01:07:07.56"],[825,"01-710-1385",19295,"2012-10-29",1667140731.08,"2012-10-29T14:38:51.08",19407,"2013-02-18",1676766194.73,"2013-02-18T00:23:14.73",19407,"2013-02-18",1676797846.2,"2013-02-18T09:10:46.20"],[826,"01-710-1385",19295,"2012-10-29",1667122964.63,"2012-10-29T09:42:44.63",19407,"2013-02-18",1676802827.32,"2013-02-18T10:33:47.32",19407,"2013-02-18",1676821811.44,"2013-02-18T15:50:11.44"],[827,"01-710-1408",19363,"2013-01-05",1672981893.04,"2013-01-05T05:11:33.04",19551,"2013-07-12",1689278476.5,"2013-07-12T20:01:16.50",19389,"2013-01-31",1675221328.18,"2013-01-31T03:15:28.18"],[828,"01-710-1408",19363,"2013-01-05",1672990260.93,"2013-01-05T07:31:00.93",19551,"2013-07-12",1689290220.45,"2013-07-12T23:17:00.45",19389,"2013-01-31",1675247712.88,"2013-01-31T10:35:12.88"],[829,"01-710-1408",19363,"2013-01-05",1672965584.25,"2013-01-05T00:39:44.25",19551,"2013-07-12",1689208318.13,"2013-07-12T00:31:58.13",19413,"2013-02-24",1677355647.55,"2013-02-24T20:07:27.55"],[830,"01-710-1408",19363,"2013-01-05",1672968185.37,"2013-01-05T01:23:05.37",19551,"2013-07-12",1689222147.17,"2013-07-12T04:22:27.17",19413,"2013-02-24",1677363240.98,"2013-02-24T22:14:00.98"],[831,"01-711-1012",19451,"2013-04-03",1680589696.81,"2013-04-03T06:28:16.81",19477,"2013-04-29",1682895576.84,"2013-04-29T22:59:36.84",19464,"2013-04-16",1681766302.06,"2013-04-16T21:18:22.06"],[832,"01-711-1012",19451,"2013-04-03",1680567288.44,"2013-04-03T00:14:48.44",19477,"2013-04-29",1682857006.31,"2013-04-29T12:16:46.31",19464,"2013-04-16",1681763905.02,"2013-04-16T20:38:25.02"],[833,"01-711-1012",19451,"2013-04-03",1680576200.32,"2013-04-03T02:43:20.32",19477,"2013-04-29",1682839914.85,"2013-04-29T07:31:54.85",19464,"2013-04-16",1681744759.32,"2013-04-16T15:19:19.32"],[834,"01-711-1012",19451,"2013-04-03",1680570331.93,"2013-04-03T01:05:31.93",19477,"2013-04-29",1682871025.44,"2013-04-29T16:10:25.44",19464,"2013-04-16",1681771912.47,"2013-04-16T22:51:52.47"],[835,"01-711-1012",19451,"2013-04-03",1680587256.59,"2013-04-03T05:47:36.59",19477,"2013-04-29",1682869687.29,"2013-04-29T15:48:07.29",19475,"2013-04-27",1682703875.06,"2013-04-27T17:44:35.06"],[836,"01-711-1012",19451,"2013-04-03",1680634041.69,"2013-04-03T18:47:21.69",19477,"2013-04-29",1682852065.1,"2013-04-29T10:54:25.10",19477,"2013-04-29",1682873540.39,"2013-04-29T16:52:20.39"],[837,"01-711-1012",19451,"2013-04-03",1680624196.33,"2013-04-03T16:03:16.33",19477,"2013-04-29",1682856624.35,"2013-04-29T12:10:24.35",19464,"2013-04-16",1681768373.32,"2013-04-16T21:52:53.32"],[838,"01-711-1036",19203,"2012-07-29",1659206058.95,"2012-07-29T18:34:18.95",19399,"2013-02-10",1676084497.33,"2013-02-10T03:01:37.33",19203,"2012-07-29",1659174387.91,"2012-07-29T09:46:27.91"],[839,"01-711-1036",19203,"2012-07-29",1659189113.15,"2012-07-29T13:51:53.15",19399,"2013-02-10",1676085725.84,"2013-02-10T03:22:05.84",19209,"2012-08-04",1659740117.68,"2012-08-04T22:55:17.68"],[840,"01-711-1036",19203,"2012-07-29",1659148790.99,"2012-07-29T02:39:50.99",19399,"2013-02-10",1676154931.56,"2013-02-10T22:35:31.56",19217,"2012-08-12",1660430837.95,"2012-08-12T22:47:17.95"],[841,"01-711-1036",19203,"2012-07-29",1659180085.69,"2012-07-29T11:21:25.69",19399,"2013-02-10",1676132815.87,"2013-02-10T16:26:55.87",19209,"2012-08-04",1659722721.16,"2012-08-04T18:05:21.16"],[842,"01-711-1143",19451,"2013-04-03",1680635193.18,"2013-04-03T19:06:33.18",19508,"2013-05-30",1685564957.62,"2013-05-30T20:29:17.62",17440,"2007-10-01",1506823424.55,"2007-10-01T02:03:44.55"],[843,"01-711-1143",19451,"2013-04-03",1680571684.2,"2013-04-03T01:28:04.20",19508,"2013-05-30",1685574624.91,"2013-05-30T23:10:24.91",19459,"2013-04-11",1681269807.53,"2013-04-11T03:23:27.53"],[844,"01-711-1143",19451,"2013-04-03",1680568771.8,"2013-04-03T00:39:31.80",19508,"2013-05-30",1685561952.62,"2013-05-30T19:39:12.62",19476,"2013-04-28",1682810803.31,"2013-04-28T23:26:43.31"],[845,"01-711-1143",19451,"2013-04-03",1680618353.72,"2013-04-03T14:25:53.72",19508,"2013-05-30",1685557756.08,"2013-05-30T18:29:16.08",19477,"2013-04-29",1682855469.25,"2013-04-29T11:51:09.25"],[846,"01-711-1143",19451,"2013-04-03",1680615061.08,"2013-04-03T13:31:01.08",19508,"2013-05-30",1685503610.25,"2013-05-30T03:26:50.25",19476,"2013-04-28",1682728992.67,"2013-04-28T00:43:12.67"],[847,"01-711-1143",19451,"2013-04-03",1680635145.75,"2013-04-03T19:05:45.75",19508,"2013-05-30",1685568154.9,"2013-05-30T21:22:34.90",19476,"2013-04-28",1682775748.29,"2013-04-28T13:42:28.29"],[848,"01-711-1143",19451,"2013-04-03",1680571282.6,"2013-04-03T01:21:22.60",19508,"2013-05-30",1685514392.41,"2013-05-30T06:26:32.41",19477,"2013-04-29",1682887592.29,"2013-04-29T20:46:32.29"],[849,"01-711-1143",19451,"2013-04-03",1680624334.02,"2013-04-03T16:05:34.02",19508,"2013-05-30",1685524286.23,"2013-05-30T09:11:26.23",19496,"2013-05-18",1684538945.38,"2013-05-18T23:29:05.38"],[850,"01-711-1143",19451,"2013-04-03",1680630795.04,"2013-04-03T17:53:15.04",19508,"2013-05-30",1685550307.72,"2013-05-30T16:25:07.72",19505,"2013-05-27",1685302637.14,"2013-05-27T19:37:17.14"],[851,"01-711-1143",19451,"2013-04-03",1680632905.33,"2013-04-03T18:28:25.33",19508,"2013-05-30",1685532318.31,"2013-05-30T11:25:18.31",19506,"2013-05-28",1685365537.4,"2013-05-28T13:05:37.40"],[852,"01-711-1143",19451,"2013-04-03",1680567061.05,"2013-04-03T00:11:01.05",19508,"2013-05-30",1685541662.48,"2013-05-30T14:01:02.48",19505,"2013-05-27",1685291277.88,"2013-05-27T16:27:57.88"],[853,"01-711-1143",19451,"2013-04-03",1680618099.31,"2013-04-03T14:21:39.31",19508,"2013-05-30",1685517703.57,"2013-05-30T07:21:43.57",19508,"2013-05-30",1685523823.08,"2013-05-30T09:03:43.08"],[854,"01-711-1143",19451,"2013-04-03",1680644589.5,"2013-04-03T21:43:09.50",19508,"2013-05-30",1685552011.72,"2013-05-30T16:53:31.72",19510,"2013-06-01",1685735100.28,"2013-06-01T19:45:00.28"],[855,"01-711-1143",19451,"2013-04-03",1680617642.61,"2013-04-03T14:14:02.61",19508,"2013-05-30",1685569760.02,"2013-05-30T21:49:20.02",19506,"2013-05-28",1685324046.56,"2013-05-28T01:34:06.56"],[856,"01-711-1433",19385,"2013-01-27",1674937780.37,"2013-01-27T20:29:40.37",19394,"2013-02-05",1675719070.34,"2013-02-05T21:31:10.34",19197,"2012-07-23",1658627165.06,"2012-07-23T01:46:05.06"],[857,"01-711-1433",19385,"2013-01-27",1674895956.62,"2013-01-27T08:52:36.62",19394,"2013-02-05",1675658954.76,"2013-02-05T04:49:14.76",19197,"2012-07-23",1658694441.79,"2012-07-23T20:27:21.79"],[858,"01-711-1433",19385,"2013-01-27",1674908168.22,"2013-01-27T12:16:08.22",19394,"2013-02-05",1675673001.24,"2013-02-05T08:43:21.24",19394,"2013-02-05",1675716105.35,"2013-02-05T20:41:45.35"],[859,"01-713-1043",19616,"2013-09-15",1694889916.16,"2013-09-15T18:45:16.16",19806,"2014-03-24",1711252067.15,"2014-03-24T03:47:47.15",19627,"2013-09-26",1695837512.56,"2013-09-26T17:58:32.56"],[860,"01-713-1043",19616,"2013-09-15",1694901605.44,"2013-09-15T22:00:05.44",19806,"2014-03-24",1711298138.62,"2014-03-24T16:35:38.62",19642,"2013-10-11",1697079686.15,"2013-10-11T03:01:26.15"],[861,"01-713-1043",19616,"2013-09-15",1694846425.54,"2013-09-15T06:40:25.54",19806,"2014-03-24",1711241642.27,"2014-03-24T00:54:02.27",19642,"2013-10-11",1697115801.67,"2013-10-11T13:03:21.67"],[862,"01-713-1043",19616,"2013-09-15",1694847489.19,"2013-09-15T06:58:09.19",19806,"2014-03-24",1711267361.06,"2014-03-24T08:02:41.06",19627,"2013-09-26",1695811212.45,"2013-09-26T10:40:12.45"],[863,"01-713-1043",19616,"2013-09-15",1694886143.49,"2013-09-15T17:42:23.49",19806,"2014-03-24",1711276749.59,"2014-03-24T10:39:09.59",19642,"2013-10-11",1697134288.31,"2013-10-11T18:11:28.31"],[864,"01-713-1043",19616,"2013-09-15",1694896751.98,"2013-09-15T20:39:11.98",19806,"2014-03-24",1711240390.02,"2014-03-24T00:33:10.02",19642,"2013-10-11",1697145637.39,"2013-10-11T21:20:37.39"],[865,"01-713-1043",19616,"2013-09-15",1694878539.29,"2013-09-15T15:35:39.29",19806,"2014-03-24",1711243871.37,"2014-03-24T01:31:11.37",19790,"2014-03-08",1709903740.47,"2014-03-08T13:15:40.47"],[866,"01-713-1073",19812,"2014-03-30",1711805439.33,"2014-03-30T13:30:39.33",20001,"2014-10-05",1728110749.97,"2014-10-05T06:45:49.97",19918,"2014-07-14",1720939629.33,"2014-07-14T06:47:09.33"],[867,"01-713-1141",19509,"2013-05-31",1685602061.54,"2013-05-31T06:47:41.54",19540,"2013-07-01",1688321458.72,"2013-07-01T18:10:58.72",19530,"2013-06-21",1687412696.21,"2013-06-21T05:44:56.21"],[868,"01-713-1141",19509,"2013-05-31",1685594898.44,"2013-05-31T04:48:18.44",19540,"2013-07-01",1688262233.56,"2013-07-01T01:43:53.56",19530,"2013-06-21",1687449797.91,"2013-06-21T16:03:17.91"],[869,"01-713-1141",19509,"2013-05-31",1685592613.07,"2013-05-31T04:10:13.07",19540,"2013-07-01",1688311073.75,"2013-07-01T15:17:53.75",19539,"2013-06-30",1688205893.23,"2013-06-30T10:04:53.23"],[870,"01-713-1141",19509,"2013-05-31",1685591525.58,"2013-05-31T03:52:05.58",19540,"2013-07-01",1688311006.72,"2013-07-01T15:16:46.72",19540,"2013-07-01",1688309738.69,"2013-07-01T14:55:38.69"],[871,"01-713-1179",19579,"2013-08-09",1691683162.6,"2013-08-09T15:59:22.60",19759,"2014-02-05",1707263200.09,"2014-02-05T23:46:40.09",19589,"2013-08-19",1692504304.62,"2013-08-19T04:05:04.62"],[872,"01-713-1179",19579,"2013-08-09",1691661326.93,"2013-08-09T09:55:26.93",19759,"2014-02-05",1707211815.09,"2014-02-05T09:30:15.09",19592,"2013-08-22",1692815077.09,"2013-08-22T18:24:37.09"],[873,"01-713-1179",19579,"2013-08-09",1691628472.54,"2013-08-09T00:47:52.54",19759,"2014-02-05",1707177987.11,"2014-02-05T00:06:27.11",19598,"2013-08-28",1693300566.44,"2013-08-28T09:16:06.44"],[874,"01-713-1179",19579,"2013-08-09",1691629508.01,"2013-08-09T01:05:08.01",19759,"2014-02-05",1707193449.24,"2014-02-05T04:24:09.24",19606,"2013-09-05",1694042081.9,"2013-09-05T23:14:41.90"],[875,"01-713-1179",19579,"2013-08-09",1691669303.04,"2013-08-09T12:08:23.04",19759,"2014-02-05",1707210516.07,"2014-02-05T09:08:36.07",19598,"2013-08-28",1693321029.74,"2013-08-28T14:57:09.74"],[876,"01-713-1179",19579,"2013-08-09",1691697422.96,"2013-08-09T19:57:02.96",19759,"2014-02-05",1707192411.37,"2014-02-05T04:06:51.37",19606,"2013-09-05",1693968125.11,"2013-09-05T02:42:05.11"],[877,"01-713-1179",19579,"2013-08-09",1691667305.69,"2013-08-09T11:35:05.69",19759,"2014-02-05",1707244872.98,"2014-02-05T18:41:12.98",19613,"2013-09-12",1694566463.1,"2013-09-12T00:54:23.10"],[878,"01-713-1179",19579,"2013-08-09",1691706855.09,"2013-08-09T22:34:15.09",19759,"2014-02-05",1707229234.22,"2014-02-05T14:20:34.22",19641,"2013-10-10",1697031875.47,"2013-10-10T13:44:35.47"],[879,"01-713-1179",19579,"2013-08-09",1691674487.54,"2013-08-09T13:34:47.54",19759,"2014-02-05",1707228955.97,"2014-02-05T14:15:55.97",19641,"2013-10-10",1697021286.34,"2013-10-10T10:48:06.34"],[880,"01-713-1179",19579,"2013-08-09",1691640920.97,"2013-08-09T04:15:20.97",19759,"2014-02-05",1707197483.12,"2014-02-05T05:31:23.12",19641,"2013-10-10",1697020123.29,"2013-10-10T10:28:43.29"],[881,"01-713-1179",19579,"2013-08-09",1691651546.42,"2013-08-09T07:12:26.42",19759,"2014-02-05",1707262755.2,"2014-02-05T23:39:15.20",19685,"2013-11-23",1700831419.35,"2013-11-23T13:10:19.35"],[882,"01-713-1179",19579,"2013-08-09",1691654505.12,"2013-08-09T08:01:45.12",19759,"2014-02-05",1707202768.58,"2014-02-05T06:59:28.58",19685,"2013-11-23",1700802257.93,"2013-11-23T05:04:17.93"],[883,"01-713-1179",19579,"2013-08-09",1691655014.74,"2013-08-09T08:10:14.74",19759,"2014-02-05",1707206802.66,"2014-02-05T08:06:42.66",19685,"2013-11-23",1700826635.07,"2013-11-23T11:50:35.07"],[884,"01-713-1179",19579,"2013-08-09",1691629488.2,"2013-08-09T01:04:48.20",19759,"2014-02-05",1707188932.98,"2014-02-05T03:08:52.98",19685,"2013-11-23",1700832699.95,"2013-11-23T13:31:39.95"],[885,"01-713-1179",19579,"2013-08-09",1691658997.98,"2013-08-09T09:16:37.98",19759,"2014-02-05",1707180282.15,"2014-02-05T00:44:42.15",19641,"2013-10-10",1696995065.63,"2013-10-10T03:31:05.63"],[886,"01-713-1209",19505,"2013-05-27",1685256306.74,"2013-05-27T06:45:06.74",19684,"2013-11-22",1700701856.98,"2013-11-22T01:10:56.98",19508,"2013-05-30",1685569965.43,"2013-05-30T21:52:45.43"],[887,"01-713-1209",19505,"2013-05-27",1685272503.46,"2013-05-27T11:15:03.46",19684,"2013-11-22",1700704338.51,"2013-11-22T01:52:18.51",19511,"2013-06-02",1685832674.01,"2013-06-02T22:51:14.01"],[888,"01-713-1209",19505,"2013-05-27",1685232223.16,"2013-05-27T00:03:43.16",19684,"2013-11-22",1700755770.18,"2013-11-22T16:09:30.18",19508,"2013-05-30",1685547346.32,"2013-05-30T15:35:46.32"],[889,"01-713-1209",19505,"2013-05-27",1685307803.59,"2013-05-27T21:03:23.59",19684,"2013-11-22",1700710001.21,"2013-11-22T03:26:41.21",19662,"2013-10-31",1698853944.96,"2013-10-31T15:52:24.96"],[890,"01-713-1256",19255,"2012-09-19",1663711680.66,"2012-09-19T22:08:00.66",19442,"2013-03-25",1679810460.28,"2013-03-25T06:01:00.28",19296,"2012-10-30",1667215913.33,"2012-10-30T11:31:53.33"],[891,"01-713-1256",19255,"2012-09-19",1663710484.61,"2012-09-19T21:48:04.61",19442,"2013-03-25",1679811173.84,"2013-03-25T06:12:53.84",19296,"2012-10-30",1667229126.45,"2012-10-30T15:12:06.45"],[892,"01-713-1269",19750,"2014-01-27",1706466531.77,"2014-01-27T18:28:51.77",19932,"2014-07-28",1722135644.11,"2014-07-28T03:00:44.11",19756,"2014-02-02",1706924080.32,"2014-02-02T01:34:40.32"],[893,"01-713-1269",19750,"2014-01-27",1706465967.53,"2014-01-27T18:19:27.53",19932,"2014-07-28",1722138711.38,"2014-07-28T03:51:51.38",19831,"2014-04-18",1713478034.76,"2014-04-18T22:07:14.76"],[894,"01-713-1269",19750,"2014-01-27",1706414590.48,"2014-01-27T04:03:10.48",19932,"2014-07-28",1722150195.88,"2014-07-28T07:03:15.88",19875,"2014-06-01",1717238673.28,"2014-06-01T10:44:33.28"],[895,"01-713-1269",19750,"2014-01-27",1706423042.36,"2014-01-27T06:24:02.36",19932,"2014-07-28",1722179131.5,"2014-07-28T15:05:31.50",19914,"2014-07-10",1720637283.09,"2014-07-10T18:48:03.09"],[896,"01-713-1269",19750,"2014-01-27",1706481152.66,"2014-01-27T22:32:32.66",19932,"2014-07-28",1722186324.05,"2014-07-28T17:05:24.05",19875,"2014-06-01",1717258856.28,"2014-06-01T16:20:56.28"],[897,"01-713-1269",19750,"2014-01-27",1706409237.83,"2014-01-27T02:33:57.83",19932,"2014-07-28",1722130904.2,"2014-07-28T01:41:44.20",19914,"2014-07-10",1720579231.99,"2014-07-10T02:40:31.99"],[898,"01-713-1448",19742,"2014-01-19",1705770259.35,"2014-01-19T17:04:19.35",19859,"2014-05-16",1715898546.23,"2014-05-16T22:29:06.23",19801,"2014-03-19",1710811200.89,"2014-03-19T01:20:00.89"],[899,"01-713-1448",19742,"2014-01-19",1705775028.06,"2014-01-19T18:23:48.06",19859,"2014-05-16",1715880670.33,"2014-05-16T17:31:10.33",19809,"2014-03-27",1711537360.98,"2014-03-27T11:02:40.98"],[900,"01-713-1448",19742,"2014-01-19",1705712473.36,"2014-01-19T01:01:13.36",19859,"2014-05-16",1715855892.5,"2014-05-16T10:38:12.50",19801,"2014-03-19",1710811949.66,"2014-03-19T01:32:29.66"],[901,"01-713-1448",19742,"2014-01-19",1705743502.83,"2014-01-19T09:38:22.83",19859,"2014-05-16",1715903648.87,"2014-05-16T23:54:08.87",19809,"2014-03-27",1711576422.82,"2014-03-27T21:53:42.82"],[902,"01-714-1035",19830,"2014-04-17",1713326050.48,"2014-04-17T03:54:10.48",20012,"2014-10-16",1729058985.91,"2014-10-16T06:09:45.91",19869,"2014-05-26",1716683828.77,"2014-05-26T00:37:08.77"],[903,"01-714-1035",19830,"2014-04-17",1713391171.59,"2014-04-17T21:59:31.59",20012,"2014-10-16",1729104917.58,"2014-10-16T18:55:17.58",19869,"2014-05-26",1716765409.81,"2014-05-26T23:16:49.81"],[904,"01-714-1035",19830,"2014-04-17",1713388571.61,"2014-04-17T21:16:11.61",20012,"2014-10-16",1729044194.36,"2014-10-16T02:03:14.36",19878,"2014-06-04",1717468584.61,"2014-06-04T02:36:24.61"],[905,"01-714-1035",19830,"2014-04-17",1713375073.45,"2014-04-17T17:31:13.45",20012,"2014-10-16",1729054503.01,"2014-10-16T04:55:03.01",19878,"2014-06-04",1717481733.72,"2014-06-04T06:15:33.72"],[906,"01-714-1035",19830,"2014-04-17",1713376536.31,"2014-04-17T17:55:36.31",20012,"2014-10-16",1729081375.66,"2014-10-16T12:22:55.66",19869,"2014-05-26",1716728229.21,"2014-05-26T12:57:09.21"],[907,"01-714-1035",19830,"2014-04-17",1713348087.32,"2014-04-17T10:01:27.32",20012,"2014-10-16",1729080289.5,"2014-10-16T12:04:49.50",19878,"2014-06-04",1717470489.62,"2014-06-04T03:08:09.62"],[908,"01-714-1035",19830,"2014-04-17",1713368673.05,"2014-04-17T15:44:33.05",20012,"2014-10-16",1729039487.78,"2014-10-16T00:44:47.78",19922,"2014-07-18",1721289892.48,"2014-07-18T08:04:52.48"],[909,"01-714-1068",19578,"2013-08-08",1691567807.7,"2013-08-08T07:56:47.70",19639,"2013-10-08",1696849553.21,"2013-10-08T11:05:53.21",19582,"2013-08-12",1691933843.14,"2013-08-12T13:37:23.14"],[910,"01-714-1068",19578,"2013-08-08",1691544720.98,"2013-08-08T01:32:00.98",19639,"2013-10-08",1696844722.02,"2013-10-08T09:45:22.02",19582,"2013-08-12",1691944412.13,"2013-08-12T16:33:32.13"],[911,"01-714-1068",19578,"2013-08-08",1691592326.52,"2013-08-08T14:45:26.52",19639,"2013-10-08",1696854252.23,"2013-10-08T12:24:12.23",19621,"2013-09-20",1695256206.02,"2013-09-20T00:30:06.02"],[912,"01-714-1068",19578,"2013-08-08",1691580186.49,"2013-08-08T11:23:06.49",19639,"2013-10-08",1696834689.07,"2013-10-08T06:58:09.07",19621,"2013-09-20",1695290866.43,"2013-09-20T10:07:46.43"],[913,"01-714-1068",19578,"2013-08-08",1691574218.21,"2013-08-08T09:43:38.21",19639,"2013-10-08",1696849541.29,"2013-10-08T11:05:41.29",19621,"2013-09-20",1695277639.3,"2013-09-20T06:27:19.30"],[914,"01-714-1068",19578,"2013-08-08",1691619681.52,"2013-08-08T22:21:21.52",19639,"2013-10-08",1696843842.89,"2013-10-08T09:30:42.89",19621,"2013-09-20",1695296489.34,"2013-09-20T11:41:29.34"],[915,"01-714-1195",19474,"2013-04-26",1682592964.71,"2013-04-26T10:56:04.71",19654,"2013-10-23",1698125015.25,"2013-10-23T05:23:35.25",19490,"2013-05-12",1684020224.1,"2013-05-12T23:23:44.10"],[916,"01-714-1195",19474,"2013-04-26",1682589409.38,"2013-04-26T09:56:49.38",19654,"2013-10-23",1698137517.7,"2013-10-23T08:51:57.70",19490,"2013-05-12",1683990478.14,"2013-05-12T15:07:58.14"],[917,"01-714-1195",19474,"2013-04-26",1682566697.33,"2013-04-26T03:38:17.33",19654,"2013-10-23",1698138417.95,"2013-10-23T09:06:57.95",19491,"2013-05-13",1684080893.17,"2013-05-13T16:14:53.17"],[918,"01-714-1195",19474,"2013-04-26",1682590430.76,"2013-04-26T10:13:50.76",19654,"2013-10-23",1698141993.48,"2013-10-23T10:06:33.48",19492,"2013-05-14",1684141631.14,"2013-05-14T09:07:11.14"],[919,"01-714-1195",19474,"2013-04-26",1682610118.67,"2013-04-26T15:41:58.67",19654,"2013-10-23",1698137960.25,"2013-10-23T08:59:20.25",19495,"2013-05-17",1684446345.88,"2013-05-17T21:45:45.88"],[920,"01-714-1195",19474,"2013-04-26",1682562443,"2013-04-26T02:27:23.00",19654,"2013-10-23",1698157599.04,"2013-10-23T14:26:39.04",19490,"2013-05-12",1683961716.74,"2013-05-12T07:08:36.74"],[921,"01-714-1195",19474,"2013-04-26",1682635478.56,"2013-04-26T22:44:38.56",19654,"2013-10-23",1698141894.55,"2013-10-23T10:04:54.55",19490,"2013-05-12",1683963757.86,"2013-05-12T07:42:37.86"],[922,"01-714-1195",19474,"2013-04-26",1682627475.66,"2013-04-26T20:31:15.66",19654,"2013-10-23",1698107835.75,"2013-10-23T00:37:15.75",19491,"2013-05-13",1684050768.95,"2013-05-13T07:52:48.95"],[923,"01-714-1195",19474,"2013-04-26",1682635826.09,"2013-04-26T22:50:26.09",19654,"2013-10-23",1698107786.43,"2013-10-23T00:36:26.43",19564,"2013-07-25",1690338934.39,"2013-07-25T02:35:34.39"],[924,"01-714-1288",19696,"2013-12-04",1701806365.96,"2013-12-04T19:59:25.96",19891,"2014-06-17",1718586774.75,"2014-06-17T01:12:54.75",19705,"2013-12-13",1702538518.82,"2013-12-13T07:21:58.82"],[925,"01-714-1288",19696,"2013-12-04",1701783828.2,"2013-12-04T13:43:48.20",19891,"2014-06-17",1718603964.01,"2014-06-17T05:59:24.01",19706,"2013-12-14",1702684256.36,"2013-12-14T23:50:56.36"],[926,"01-714-1288",19696,"2013-12-04",1701781579.74,"2013-12-04T13:06:19.74",19891,"2014-06-17",1718590118.19,"2014-06-17T02:08:38.19",19734,"2014-01-11",1705028200.32,"2014-01-11T02:56:40.32"],[927,"01-714-1288",19696,"2013-12-04",1701748206.94,"2013-12-04T03:50:06.94",19891,"2014-06-17",1718628805.35,"2014-06-17T12:53:25.35",19745,"2014-01-22",1706041719.99,"2014-01-22T20:28:39.99"],[928,"01-714-1288",19696,"2013-12-04",1701782041.62,"2013-12-04T13:14:01.62",19891,"2014-06-17",1718643057.6,"2014-06-17T16:50:57.60",19745,"2014-01-22",1705972860.42,"2014-01-22T01:21:00.42"],[929,"01-714-1288",19696,"2013-12-04",1701774664.31,"2013-12-04T11:11:04.31",19891,"2014-06-17",1718664167.85,"2014-06-17T22:42:47.85",19778,"2014-02-24",1708896415.58,"2014-02-24T21:26:55.58"],[930,"01-714-1288",19696,"2013-12-04",1701795415.94,"2013-12-04T16:56:55.94",19891,"2014-06-17",1718646970.23,"2014-06-17T17:56:10.23",19790,"2014-03-08",1709912440.37,"2014-03-08T15:40:40.37"],[931,"01-714-1288",19696,"2013-12-04",1701794193.46,"2013-12-04T16:36:33.46",19891,"2014-06-17",1718649073.43,"2014-06-17T18:31:13.43",19778,"2014-02-24",1708873565.2,"2014-02-24T15:06:05.20"],[932,"01-714-1288",19696,"2013-12-04",1701755147.25,"2013-12-04T05:45:47.25",19891,"2014-06-17",1718634888.82,"2014-06-17T14:34:48.82",19870,"2014-05-27",1716808525.59,"2014-05-27T11:15:25.59"],[933,"01-714-1375",19415,"2013-02-26",1677495847.08,"2013-02-26T11:04:07.08",19608,"2013-09-07",1694175481.96,"2013-09-07T12:18:01.96",19447,"2013-03-30",1680294243,"2013-03-30T20:24:03.00"],[934,"01-714-1375",19415,"2013-02-26",1677464603.96,"2013-02-26T02:23:23.96",19608,"2013-09-07",1694139274.37,"2013-09-07T02:14:34.37",19452,"2013-04-04",1680720392.41,"2013-04-04T18:46:32.41"],[935,"01-714-1375",19415,"2013-02-26",1677493427.41,"2013-02-26T10:23:47.41",19608,"2013-09-07",1694176915.25,"2013-09-07T12:41:55.25",19447,"2013-03-30",1680275952.74,"2013-03-30T15:19:12.74"],[936,"01-714-1375",19415,"2013-02-26",1677530304.67,"2013-02-26T20:38:24.67",19608,"2013-09-07",1694135847.28,"2013-09-07T01:17:27.28",19452,"2013-04-04",1680718854.37,"2013-04-04T18:20:54.37"],[937,"01-714-1375",19415,"2013-02-26",1677516428.55,"2013-02-26T16:47:08.55",19608,"2013-09-07",1694171798.64,"2013-09-07T11:16:38.64",19507,"2013-05-29",1685420680,"2013-05-29T04:24:40.00"],[938,"01-714-1375",19415,"2013-02-26",1677487412.22,"2013-02-26T08:43:32.22",19608,"2013-09-07",1694211609.07,"2013-09-07T22:20:09.07",19525,"2013-06-16",1687031737.86,"2013-06-16T19:55:37.86"],[939,"01-714-1375",19415,"2013-02-26",1677485046.33,"2013-02-26T08:04:06.33",19608,"2013-09-07",1694176021.19,"2013-09-07T12:27:01.19",19507,"2013-05-29",1685411053.52,"2013-05-29T01:44:13.52"],[940,"01-714-1375",19415,"2013-02-26",1677532926.77,"2013-02-26T21:22:06.77",19608,"2013-09-07",1694152366.32,"2013-09-07T05:52:46.32",19525,"2013-06-16",1687044458.99,"2013-06-16T23:27:38.99"],[941,"01-714-1425",19585,"2013-08-15",1692228147.18,"2013-08-15T23:22:27.18",19589,"2013-08-19",1692529792.56,"2013-08-19T11:09:52.56",19583,"2013-08-13",1692008994.07,"2013-08-13T10:29:54.07"],[942,"01-715-1107",19415,"2013-02-26",1677505088.84,"2013-02-26T13:38:08.84",19485,"2013-05-07",1683511453.9,"2013-05-07T02:04:13.90",19485,"2013-05-07",1683565353.86,"2013-05-07T17:02:33.86"],[943,"01-715-1107",19415,"2013-02-26",1677502910.53,"2013-02-26T13:01:50.53",19485,"2013-05-07",1683587642.99,"2013-05-07T23:14:02.99",19491,"2013-05-13",1684079372.16,"2013-05-13T15:49:32.16"],[944,"01-715-1107",19415,"2013-02-26",1677509134.12,"2013-02-26T14:45:34.12",19485,"2013-05-07",1683514485.95,"2013-05-07T02:54:45.95",19485,"2013-05-07",1683510294.65,"2013-05-07T01:44:54.65"],[945,"01-715-1207",19315,"2012-11-18",1668890606.09,"2012-11-18T20:43:26.09",19505,"2013-05-27",1685302894.09,"2013-05-27T19:41:34.09",19368,"2013-01-10",1673434514.13,"2013-01-10T10:55:14.13"],[946,"01-715-1319",19406,"2013-02-17",1676754832.8,"2013-02-17T21:13:52.80",19422,"2013-03-05",1678103775.72,"2013-03-05T11:56:15.72",19435,"2013-03-18",1679267133.29,"2013-03-18T23:05:33.29"],[947,"01-715-1321",19765,"2014-02-11",1707715957.97,"2014-02-11T05:32:37.97",19834,"2014-04-21",1713673126.14,"2014-04-21T04:18:46.14",19796,"2014-03-14",1710439584.5,"2014-03-14T18:06:24.50"],[948,"01-715-1321",19765,"2014-02-11",1707779956.04,"2014-02-11T23:19:16.04",19834,"2014-04-21",1713708169.16,"2014-04-21T14:02:49.16",19796,"2014-03-14",1710376347.56,"2014-03-14T00:32:27.56"],[949,"01-715-1321",19765,"2014-02-11",1707724807.14,"2014-02-11T08:00:07.14",19834,"2014-04-21",1713665326.36,"2014-04-21T02:08:46.36",19834,"2014-04-21",1713680544.81,"2014-04-21T06:22:24.81"],[950,"01-715-1321",19765,"2014-02-11",1707731320.69,"2014-02-11T09:48:40.69",19834,"2014-04-21",1713677414.93,"2014-04-21T05:30:14.93",19835,"2014-04-22",1713795456.96,"2014-04-22T14:17:36.96"],[951,"01-715-1405",19545,"2013-07-06",1688766852.32,"2013-07-06T21:54:12.32",19546,"2013-07-07",1688777575.54,"2013-07-07T00:52:55.54",19547,"2013-07-08",1688907581.49,"2013-07-08T12:59:41.49"],[952,"01-715-1405",19545,"2013-07-06",1688773976.23,"2013-07-06T23:52:56.23",19546,"2013-07-07",1688810124.26,"2013-07-07T09:55:24.26",19547,"2013-07-08",1688864040.78,"2013-07-08T00:54:00.78"],[953,"01-715-1405",19545,"2013-07-06",1688740245.07,"2013-07-06T14:30:45.07",19546,"2013-07-07",1688831214.4,"2013-07-07T15:46:54.40",19547,"2013-07-08",1688930764.99,"2013-07-08T19:26:04.99"],[954,"01-715-1405",19545,"2013-07-06",1688770815.15,"2013-07-06T23:00:15.15",19546,"2013-07-07",1688791390.74,"2013-07-07T04:43:10.74",19547,"2013-07-08",1688945164.62,"2013-07-08T23:26:04.62"],[955,"01-715-1405",19545,"2013-07-06",1688757293.28,"2013-07-06T19:14:53.28",19546,"2013-07-07",1688807756.56,"2013-07-07T09:15:56.56",19552,"2013-07-13",1689351188.96,"2013-07-13T16:13:08.96"],[956,"01-715-1405",19545,"2013-07-06",1688722181.81,"2013-07-06T09:29:41.81",19546,"2013-07-07",1688858685.12,"2013-07-07T23:24:45.12",19552,"2013-07-13",1689352502.81,"2013-07-13T16:35:02.81"],[957,"01-716-1024",19183,"2012-07-09",1657447751.82,"2012-07-09T10:09:11.82",19378,"2013-01-20",1674279337.62,"2013-01-20T05:35:37.62",19225,"2012-08-20",1661044335.55,"2012-08-20T01:12:15.55"],[958,"01-716-1024",19183,"2012-07-09",1657461735.81,"2012-07-09T14:02:15.81",19378,"2013-01-20",1674300078.66,"2013-01-20T11:21:18.66",19225,"2012-08-20",1661099029.4,"2012-08-20T16:23:49.40"],[959,"01-716-1024",19183,"2012-07-09",1657419902.19,"2012-07-09T02:25:02.19",19378,"2013-01-20",1674289785.82,"2013-01-20T08:29:45.82",19343,"2012-12-16",1671285520.64,"2012-12-16T13:58:40.64"],[960,"01-716-1026",19815,"2014-04-02",1712035986.48,"2014-04-02T05:33:06.48",20012,"2014-10-16",1729081188.98,"2014-10-16T12:19:48.98",19830,"2014-04-17",1713346712.5,"2014-04-17T09:38:32.50"],[961,"01-716-1026",19815,"2014-04-02",1712032961.46,"2014-04-02T04:42:41.46",20012,"2014-10-16",1729085088.97,"2014-10-16T13:24:48.97",19830,"2014-04-17",1713319497.17,"2014-04-17T02:04:57.17"],[962,"01-716-1026",19815,"2014-04-02",1712092452.41,"2014-04-02T21:14:12.41",20012,"2014-10-16",1729120202.97,"2014-10-16T23:10:02.97",19831,"2014-04-18",1713403107.16,"2014-04-18T01:18:27.16"],[963,"01-716-1026",19815,"2014-04-02",1712102165.67,"2014-04-02T23:56:05.67",20012,"2014-10-16",1729040282.02,"2014-10-16T00:58:02.02",19920,"2014-07-16",1721141069.62,"2014-07-16T14:44:29.62"],[964,"01-716-1026",19815,"2014-04-02",1712069276.69,"2014-04-02T14:47:56.69",20012,"2014-10-16",1729094205.79,"2014-10-16T15:56:45.79",19935,"2014-07-31",1722419317.97,"2014-07-31T09:48:37.97"],[965,"01-716-1026",19815,"2014-04-02",1712055246.11,"2014-04-02T10:54:06.11",20012,"2014-10-16",1729119372.69,"2014-10-16T22:56:12.69",19831,"2014-04-18",1713425133.65,"2014-04-18T07:25:33.65"],[966,"01-716-1026",19815,"2014-04-02",1712032365.35,"2014-04-02T04:32:45.35",20012,"2014-10-16",1729043261.29,"2014-10-16T01:47:41.29",19950,"2014-08-15",1723750705.45,"2014-08-15T19:38:25.45"],[967,"01-716-1044",19475,"2013-04-27",1682664011.1,"2013-04-27T06:40:11.10",19665,"2013-11-03",1699102691.35,"2013-11-03T12:58:11.35",19499,"2013-05-21",1684731364.5,"2013-05-21T04:56:04.50"],[968,"01-716-1044",19475,"2013-04-27",1682709356.09,"2013-04-27T19:15:56.09",19665,"2013-11-03",1699118869.59,"2013-11-03T17:27:49.59",19499,"2013-05-21",1684740614.02,"2013-05-21T07:30:14.02"],[969,"01-716-1044",19475,"2013-04-27",1682724757.98,"2013-04-27T23:32:37.98",19665,"2013-11-03",1699125851.52,"2013-11-03T19:24:11.52",19646,"2013-10-15",1697458571.04,"2013-10-15T12:16:11.04"],[970,"01-716-1063",19487,"2013-05-09",1683682506.8,"2013-05-09T01:35:06.80",19595,"2013-08-25",1693061050.81,"2013-08-25T14:44:10.81",19487,"2013-05-09",1683712377.19,"2013-05-09T09:52:57.19"],[971,"01-716-1063",19487,"2013-05-09",1683718797.12,"2013-05-09T11:39:57.12",19595,"2013-08-25",1693050947.63,"2013-08-25T11:55:47.63",19540,"2013-07-01",1688284218.83,"2013-07-01T07:50:18.83"],[972,"01-716-1063",19487,"2013-05-09",1683740244.27,"2013-05-09T17:37:24.27",19595,"2013-08-25",1693088035.01,"2013-08-25T22:13:55.01",19543,"2013-07-04",1688594717.72,"2013-07-04T22:05:17.72"],[973,"01-716-1063",19487,"2013-05-09",1683720457.23,"2013-05-09T12:07:37.23",19595,"2013-08-25",1693020884.32,"2013-08-25T03:34:44.32",19543,"2013-07-04",1688597229.55,"2013-07-04T22:47:09.55"],[974,"01-716-1063",19487,"2013-05-09",1683747193.86,"2013-05-09T19:33:13.86",19595,"2013-08-25",1693051408.71,"2013-08-25T12:03:28.71",19567,"2013-07-28",1690654236.73,"2013-07-28T18:10:36.73"],[975,"01-716-1063",19487,"2013-05-09",1683756914.28,"2013-05-09T22:15:14.28",19595,"2013-08-25",1693093843.9,"2013-08-25T23:50:43.90",19570,"2013-07-31",1690924483.48,"2013-07-31T21:14:43.48"],[976,"01-716-1063",19487,"2013-05-09",1683690457.31,"2013-05-09T03:47:37.31",19595,"2013-08-25",1693046257.27,"2013-08-25T10:37:37.27",19567,"2013-07-28",1690644482.37,"2013-07-28T15:28:02.37"],[977,"01-716-1071",19517,"2013-06-08",1686330487.55,"2013-06-08T17:08:07.55",19571,"2013-08-01",1690976294.52,"2013-08-01T11:38:14.52",19552,"2013-07-13",1689368304.86,"2013-07-13T20:58:24.86"],[978,"01-716-1071",19517,"2013-06-08",1686310335.79,"2013-06-08T11:32:15.79",19571,"2013-08-01",1690969903.03,"2013-08-01T09:51:43.03",19552,"2013-07-13",1689352673.27,"2013-07-13T16:37:53.27"],[979,"01-716-1071",19517,"2013-06-08",1686283577.21,"2013-06-08T04:06:17.21",19571,"2013-08-01",1690946196.17,"2013-08-01T03:16:36.17",19570,"2013-07-31",1690870325.01,"2013-07-31T06:12:05.01"],[980,"01-716-1094",19346,"2012-12-19",1671576836,"2012-12-19T22:53:56.00",19382,"2013-01-24",1674652779.96,"2013-01-24T13:19:39.96",19377,"2013-01-19",1674178313.51,"2013-01-19T01:31:53.51"],[981,"01-716-1094",19346,"2012-12-19",1671560791.47,"2012-12-19T18:26:31.47",19382,"2013-01-24",1674669000.65,"2013-01-24T17:50:00.65",19377,"2013-01-19",1674236337,"2013-01-19T17:38:57.00"],[982,"01-716-1094",19346,"2012-12-19",1671554605.95,"2012-12-19T16:43:25.95",19382,"2013-01-24",1674662072.64,"2013-01-24T15:54:32.64",19377,"2013-01-19",1674189505.68,"2013-01-19T04:38:25.68"],[983,"01-716-1103",19802,"2014-03-20",1710900891.62,"2014-03-20T02:14:51.62",19986,"2014-09-20",1726873864.35,"2014-09-20T23:11:04.35",19913,"2014-07-09",1720538154.33,"2014-07-09T15:15:54.33"],[984,"01-716-1103",19802,"2014-03-20",1710912365.26,"2014-03-20T05:26:05.26",19986,"2014-09-20",1726833726.23,"2014-09-20T12:02:06.23",19913,"2014-07-09",1720518381.97,"2014-07-09T09:46:21.97"],[985,"01-716-1103",19802,"2014-03-20",1710910336.85,"2014-03-20T04:52:16.85",19986,"2014-09-20",1726865234.42,"2014-09-20T20:47:14.42",19913,"2014-07-09",1720515263.12,"2014-07-09T08:54:23.12"],[986,"01-716-1103",19802,"2014-03-20",1710978872.27,"2014-03-20T23:54:32.27",19986,"2014-09-20",1726876549.8,"2014-09-20T23:55:49.80",19952,"2014-08-17",1723870577.12,"2014-08-17T04:56:17.12"],[987,"01-716-1103",19802,"2014-03-20",1710925187.38,"2014-03-20T08:59:47.38",19986,"2014-09-20",1726812262.4,"2014-09-20T06:04:22.40",19952,"2014-08-17",1723911335.42,"2014-08-17T16:15:35.42"],[988,"01-716-1108",19401,"2013-02-12",1676253371.55,"2013-02-12T01:56:11.55",19580,"2013-08-10",1691776167.88,"2013-08-10T17:49:27.88",19460,"2013-04-12",1681392533.71,"2013-04-12T13:28:53.71"],[989,"01-716-1108",19401,"2013-02-12",1676271197.08,"2013-02-12T06:53:17.08",19580,"2013-08-10",1691770592.67,"2013-08-10T16:16:32.67",19479,"2013-05-01",1683012896.32,"2013-05-01T07:34:56.32"],[990,"01-716-1151",19390,"2013-02-01",1675348937.3,"2013-02-01T14:42:17.30",19489,"2013-05-11",1683928704.78,"2013-05-11T21:58:24.78",19408,"2013-02-19",1676853427.18,"2013-02-19T00:37:07.18"],[991,"01-716-1151",19390,"2013-02-01",1675372390.63,"2013-02-01T21:13:10.63",19489,"2013-05-11",1683895124.85,"2013-05-11T12:38:44.85",19432,"2013-03-15",1678939044.47,"2013-03-15T03:57:24.47"],[992,"01-716-1151",19390,"2013-02-01",1675303328.57,"2013-02-01T02:02:08.57",19489,"2013-05-11",1683877633.12,"2013-05-11T07:47:13.12",19432,"2013-03-15",1678980230.74,"2013-03-15T15:23:50.74"],[993,"01-716-1151",19390,"2013-02-01",1675373672.72,"2013-02-01T21:34:32.72",19489,"2013-05-11",1683852444.92,"2013-05-11T00:47:24.92",19408,"2013-02-19",1676884354.87,"2013-02-19T09:12:34.87"],[994,"01-716-1157",19633,"2013-10-02",1696334174.8,"2013-10-02T11:56:14.80",19817,"2014-04-04",1712242898.77,"2014-04-04T15:01:38.77",19648,"2013-10-17",1697597008.98,"2013-10-17T02:43:28.98"],[995,"01-716-1157",19633,"2013-10-02",1696311117.15,"2013-10-02T05:31:57.15",19817,"2014-04-04",1712193771.38,"2014-04-04T01:22:51.38",19656,"2013-10-25",1698321439.27,"2013-10-25T11:57:19.27"],[996,"01-716-1157",19633,"2013-10-02",1696329407.98,"2013-10-02T10:36:47.98",19817,"2014-04-04",1712233581.54,"2014-04-04T12:26:21.54",19656,"2013-10-25",1698320591.31,"2013-10-25T11:43:11.31"],[997,"01-716-1157",19633,"2013-10-02",1696325218.99,"2013-10-02T09:26:58.99",19817,"2014-04-04",1712269203.32,"2014-04-04T22:20:03.32",19648,"2013-10-17",1697593854.29,"2013-10-17T01:50:54.29"],[998,"01-716-1160",19453,"2013-04-05",1680820569.14,"2013-04-05T22:36:09.14",19642,"2013-10-11",1697141183.8,"2013-10-11T20:06:23.80",19487,"2013-05-09",1683763028.88,"2013-05-09T23:57:08.88"],[999,"01-716-1160",19453,"2013-04-05",1680820277.03,"2013-04-05T22:31:17.03",19642,"2013-10-11",1697076158.4,"2013-10-11T02:02:38.40",19487,"2013-05-09",1683695176.86,"2013-05-09T05:06:16.86"],[1000,"01-716-1167",19274,"2012-10-08",1665322020.47,"2012-10-08T13:27:00.47",19460,"2013-04-12",1681361000.27,"2013-04-12T04:43:20.27",19314,"2012-11-17",1668735255.38,"2012-11-17T01:34:15.38"],[1001,"01-716-1167",19274,"2012-10-08",1665283467.6,"2012-10-08T02:44:27.60",19460,"2013-04-12",1681412230.92,"2013-04-12T18:57:10.92",19314,"2012-11-17",1668802694.42,"2012-11-17T20:18:14.42"],[1002,"01-716-1167",19274,"2012-10-08",1665317766.38,"2012-10-08T12:16:06.38",19460,"2013-04-12",1681370515.42,"2013-04-12T07:21:55.42",19330,"2012-12-03",1670163476.73,"2012-12-03T14:17:56.73"],[1003,"01-716-1167",19274,"2012-10-08",1665277930.29,"2012-10-08T01:12:10.29",19460,"2013-04-12",1681390600.66,"2013-04-12T12:56:40.66",19427,"2013-03-10",1678525790.52,"2013-03-10T09:09:50.52"],[1004,"01-716-1167",19274,"2012-10-08",1665305286.52,"2012-10-08T08:48:06.52",19460,"2013-04-12",1681378355.44,"2013-04-12T09:32:35.44",19427,"2013-03-10",1678559266.06,"2013-03-10T18:27:46.06"],[1005,"01-716-1177",19968,"2014-09-02",1725264124.25,"2014-09-02T08:02:04.25",20152,"2015-03-05",1741206881.31,"2015-03-05T20:34:41.31",19959,"2014-08-24",1724490639.47,"2014-08-24T09:10:39.47"],[1006,"01-716-1189",19275,"2012-10-09",1665405666.01,"2012-10-09T12:41:06.01",19416,"2013-02-27",1677607530.27,"2013-02-27T18:05:30.27",19321,"2012-11-24",1669417643.03,"2012-11-24T23:07:23.03"],[1007,"01-716-1189",19275,"2012-10-09",1665423127.81,"2012-10-09T17:32:07.81",19416,"2013-02-27",1677570423.97,"2013-02-27T07:47:03.97",19321,"2012-11-24",1669351561.35,"2012-11-24T04:46:01.35"],[1008,"01-716-1189",19275,"2012-10-09",1665393742.54,"2012-10-09T09:22:22.54",19416,"2013-02-27",1677581473.36,"2013-02-27T10:51:13.36",19363,"2013-01-05",1672986162.06,"2013-01-05T06:22:42.06"],[1009,"01-716-1189",19275,"2012-10-09",1665377331.8,"2012-10-09T04:48:51.80",19416,"2013-02-27",1677617712.31,"2013-02-27T20:55:12.31",19396,"2013-02-07",1675842972.28,"2013-02-07T07:56:12.28"],[1010,"01-716-1229",19409,"2013-02-20",1676985406.52,"2013-02-20T13:16:46.52",19448,"2013-03-31",1680307234.42,"2013-03-31T00:00:34.42",19409,"2013-02-20",1677020251.43,"2013-02-20T22:57:31.43"],[1011,"01-716-1229",19409,"2013-02-20",1676993290.59,"2013-02-20T15:28:10.59",19448,"2013-03-31",1680379849.76,"2013-03-31T20:10:49.76",19423,"2013-03-06",1678163354.11,"2013-03-06T04:29:14.11"],[1012,"01-716-1298",19456,"2013-04-08",1681041214.69,"2013-04-08T11:53:34.69",19537,"2013-06-28",1688015569.34,"2013-06-28T05:12:49.34",19470,"2013-04-22",1682227483.11,"2013-04-22T05:24:43.11"],[1013,"01-716-1298",19456,"2013-04-08",1681052305.53,"2013-04-08T14:58:25.53",19537,"2013-06-28",1688081485.06,"2013-06-28T23:31:25.06",19470,"2013-04-22",1682233386.84,"2013-04-22T07:03:06.84"],[1014,"01-716-1298",19456,"2013-04-08",1681039045.15,"2013-04-08T11:17:25.15",19537,"2013-06-28",1688001200.39,"2013-06-28T01:13:20.39",19517,"2013-06-08",1686343865.88,"2013-06-08T20:51:05.88"],[1015,"01-716-1298",19456,"2013-04-08",1681032866.28,"2013-04-08T09:34:26.28",19537,"2013-06-28",1688039542.66,"2013-06-28T11:52:22.66",19470,"2013-04-22",1682263850.22,"2013-04-22T15:30:50.22"],[1016,"01-716-1298",19456,"2013-04-08",1681046386.25,"2013-04-08T13:19:46.25",19537,"2013-06-28",1688016522.29,"2013-06-28T05:28:42.29",19470,"2013-04-22",1682291257.39,"2013-04-22T23:07:37.39"],[1017,"01-716-1298",19456,"2013-04-08",1681077143.52,"2013-04-08T21:52:23.52",19537,"2013-06-28",1688054540.72,"2013-06-28T16:02:20.72",19517,"2013-06-08",1686297878.08,"2013-06-08T08:04:38.08"],[1018,"01-716-1308",19598,"2013-08-28",1693328647.84,"2013-08-28T17:04:07.84",19638,"2013-10-07",1696736710.73,"2013-10-07T03:45:10.73",19621,"2013-09-20",1695298612.31,"2013-09-20T12:16:52.31"],[1019,"01-716-1311",19857,"2014-05-14",1715646989.02,"2014-05-14T00:36:29.02",19987,"2014-09-21",1726902429.39,"2014-09-21T07:07:09.39",19871,"2014-05-28",1716897511.82,"2014-05-28T11:58:31.82"],[1020,"01-716-1311",19857,"2014-05-14",1715651589.26,"2014-05-14T01:53:09.26",19987,"2014-09-21",1726945421.95,"2014-09-21T19:03:41.95",19926,"2014-07-22",1721637780.73,"2014-07-22T08:43:00.73"],[1021,"01-716-1311",19857,"2014-05-14",1715646513.89,"2014-05-14T00:28:33.89",19987,"2014-09-21",1726900527.38,"2014-09-21T06:35:27.38",19937,"2014-08-02",1722613331.85,"2014-08-02T15:42:11.85"],[1022,"01-716-1311",19857,"2014-05-14",1715708154.16,"2014-05-14T17:35:54.16",19987,"2014-09-21",1726893084.8,"2014-09-21T04:31:24.80",19871,"2014-05-28",1716869109.86,"2014-05-28T04:05:09.86"],[1023,"01-716-1364",19543,"2013-07-04",1688587928.89,"2013-07-04T20:12:08.89",19732,"2014-01-09",1704923130.58,"2014-01-09T21:45:30.58",19588,"2013-08-18",1692485695.16,"2013-08-18T22:54:55.16"],[1024,"01-716-1364",19543,"2013-07-04",1688560502.6,"2013-07-04T12:35:02.60",19732,"2014-01-09",1704885797.08,"2014-01-09T11:23:17.08",19603,"2013-09-02",1693781232.56,"2013-09-02T22:47:12.56"],[1025,"01-716-1373",19341,"2012-12-14",1671117642.49,"2012-12-14T15:20:42.49",19416,"2013-02-27",1677606362.06,"2013-02-27T17:46:02.06",19341,"2012-12-14",1671143609.75,"2012-12-14T22:33:29.75"],[1026,"01-716-1373",19341,"2012-12-14",1671076290.3,"2012-12-14T03:51:30.30",19416,"2013-02-27",1677545735.82,"2013-02-27T00:55:35.82",19342,"2012-12-15",1671234513.64,"2012-12-15T23:48:33.64"],[1027,"01-716-1418",19483,"2013-05-05",1683377601.56,"2013-05-05T12:53:21.56",19682,"2013-11-20",1700544246.46,"2013-11-20T05:24:06.46",19483,"2013-05-05",1683415226.63,"2013-05-05T23:20:26.63"],[1028,"01-716-1418",19483,"2013-05-05",1683413903.22,"2013-05-05T22:58:23.22",19682,"2013-11-20",1700538872.75,"2013-11-20T03:54:32.75",19483,"2013-05-05",1683334572.04,"2013-05-05T00:56:12.04"],[