{"fileOID":"www.cdisc.org/StudyMSGv2/1/Define-XML_2.1.0/2023-06-21/adae","creationDateTime":"2023-06-21T21:29:44","datasetJSONVersion":"1.0.0","originator":"CDISC ADaM MSG Team","sourceSystem":"Sponsor System","sourceSystemVersion":"1.0","clinicalData":{"studyOID":"TDF_ADaM.ADaMIG.1.1","metaDataVersionOID":"MDV.TDF_ADaM.ADaMIG.1.1","metaDataRef":"https://metadata.location.org/TDF_ADaM_ADaMIG11/define.xml","itemGroupData":{"IG.ADAE":{"records":1191,"name":"ADAE","label":"","items":[{"OID":"ITEMGROUPDATASEQ","name":"ITEMGROUPDATASEQ","label":"Record Identifier","type":"integer"},{"OID":"IT.ADAE.STUDYID","name":"STUDYID","label":"Study Identifier","type":"string","length":12},{"OID":"IT.ADAE.SITEID","name":"SITEID","label":"Study Site Identifier","type":"string","length":3},{"OID":"IT.ADAE.USUBJID","name":"USUBJID","label":"Unique Subject Identifier","type":"string","length":11},{"OID":"IT.ADAE.TRTA","name":"TRTA","label":"Actual Treatment","type":"string","length":20},{"OID":"IT.ADAE.TRTAN","name":"TRTAN","label":"Actual Treatment (N)","type":"float","length":8},{"OID":"IT.ADAE.AGE","name":"AGE","label":"Age","type":"float","length":8},{"OID":"IT.ADAE.AGEGR1","name":"AGEGR1","label":"Pooled Age Group 1","type":"string","length":5},{"OID":"IT.ADAE.AGEGR1N","name":"AGEGR1N","label":"Pooled Age Group 1 (N)","type":"float","length":8},{"OID":"IT.ADAE.RACE","name":"RACE","label":"Race","type":"string","length":32},{"OID":"IT.ADAE.RACEN","name":"RACEN","label":"Race (N)","type":"float","length":8},{"OID":"IT.ADAE.SEX","name":"SEX","label":"Sex","type":"string","length":1},{"OID":"IT.ADAE.SAFFL","name":"SAFFL","label":"Safety Population Flag","type":"string","length":1},{"OID":"IT.ADAE.TRTSDT","name":"TRTSDT","label":"Date of First Exposure to Treatment","type":"float","length":8,"displayFormat":"DATE9."},{"OID":"IT.ADAE.TRTEDT","name":"TRTEDT","label":"Date of Last Exposure to Treatment","type":"float","length":8,"displayFormat":"DATE9."},{"OID":"IT.ADAE.ASTDT","name":"ASTDT","label":"Analysis Start Date","type":"float","length":8,"displayFormat":"DATE9."},{"OID":"IT.ADAE.ASTDTF","name":"ASTDTF","label":"Analysis Start Date Imputation Flag","type":"string","length":1},{"OID":"IT.ADAE.ASTDY","name":"ASTDY","label":"Analysis Start Relative Day","type":"float","length":8},{"OID":"IT.ADAE.AENDT","name":"AENDT","label":"Analysis End Date","type":"float","length":8,"displayFormat":"DATE9."},{"OID":"IT.ADAE.AENDY","name":"AENDY","label":"Analysis End Relative Day","type":"float","length":8},{"OID":"IT.ADAE.ADURN","name":"ADURN","label":"Analysis Duration (N)","type":"float","length":8},{"OID":"IT.ADAE.ADURU","name":"ADURU","label":"Analysis Duration Units","type":"string","length":3},{"OID":"IT.ADAE.AETERM","name":"AETERM","label":"Reported Term for the Adverse Event","type":"string","length":46},{"OID":"IT.ADAE.AELLT","name":"AELLT","label":"Lowest Level Term","type":"string","length":46},{"OID":"IT.ADAE.AELLTCD","name":"AELLTCD","label":"Lowest Level Term Code","type":"float","length":8},{"OID":"IT.ADAE.AEDECOD","name":"AEDECOD","label":"Dictionary-Derived Term","type":"string","length":46},{"OID":"IT.ADAE.AEPTCD","name":"AEPTCD","label":"Preferred Term Code","type":"float","length":8},{"OID":"IT.ADAE.AEHLT","name":"AEHLT","label":"High Level Term","type":"string","length":8},{"OID":"IT.ADAE.AEHLTCD","name":"AEHLTCD","label":"High Level Term Code","type":"float","length":8},{"OID":"IT.ADAE.AEHLGT","name":"AEHLGT","label":"High Level Group Term","type":"string","length":9},{"OID":"IT.ADAE.AEHLGTCD","name":"AEHLGTCD","label":"High Level Group Term Code","type":"float","length":8},{"OID":"IT.ADAE.AEBODSYS","name":"AEBODSYS","label":"Body System or Organ Class","type":"string","length":67},{"OID":"IT.ADAE.AESOC","name":"AESOC","label":"Primary System Organ Class","type":"string","length":67},{"OID":"IT.ADAE.AESOCCD","name":"AESOCCD","label":"Primary System Organ Class Code","type":"float","length":8},{"OID":"IT.ADAE.AESEV","name":"AESEV","label":"Severity/Intensity","type":"string","length":8},{"OID":"IT.ADAE.AESER","name":"AESER","label":"Serious Event","type":"string","length":1},{"OID":"IT.ADAE.AESCAN","name":"AESCAN","label":"Involves Cancer","type":"string","length":1},{"OID":"IT.ADAE.AESCONG","name":"AESCONG","label":"Congenital Anomaly or Birth Defect","type":"string","length":1},{"OID":"IT.ADAE.AESDISAB","name":"AESDISAB","label":"Persist or Signif Disability/Incapacity","type":"string","length":1},{"OID":"IT.ADAE.AESDTH","name":"AESDTH","label":"Results in Death","type":"string","length":1},{"OID":"IT.ADAE.AESHOSP","name":"AESHOSP","label":"Requires or Prolongs Hospitalization","type":"string","length":1},{"OID":"IT.ADAE.AESLIFE","name":"AESLIFE","label":"Is Life Threatening","type":"string","length":1},{"OID":"IT.ADAE.AESOD","name":"AESOD","label":"Occurred with Overdose","type":"string","length":1},{"OID":"IT.ADAE.AEREL","name":"AEREL","label":"Causality","type":"string","length":8},{"OID":"IT.ADAE.AEACN","name":"AEACN","label":"Action Taken with Study Treatment","type":"string","length":1},{"OID":"IT.ADAE.AEOUT","name":"AEOUT","label":"Outcome of Adverse Event","type":"string","length":26},{"OID":"IT.ADAE.AESEQ","name":"AESEQ","label":"Sequence Number","type":"float","length":8},{"OID":"IT.ADAE.TRTEMFL","name":"TRTEMFL","label":"Treatment Emergent Analysis Flag","type":"string","length":1},{"OID":"IT.ADAE.AOCCFL","name":"AOCCFL","label":"1st Occurrence within Subject Flag","type":"string","length":1},{"OID":"IT.ADAE.AOCCSFL","name":"AOCCSFL","label":"1st Occurrence of SOC Flag","type":"string","length":1},{"OID":"IT.ADAE.AOCCPFL","name":"AOCCPFL","label":"1st Occurrence of Preferred Term Flag","type":"string","length":1},{"OID":"IT.ADAE.AOCC02FL","name":"AOCC02FL","label":"1st Occurrence 02 Flag for Serious","type":"string","length":1},{"OID":"IT.ADAE.AOCC03FL","name":"AOCC03FL","label":"1st Occurrence 03 Flag for Serious SOC","type":"string","length":1},{"OID":"IT.ADAE.AOCC04FL","name":"AOCC04FL","label":"1st Occurrence 04 Flag for Serious PT","type":"string","length":1},{"OID":"IT.ADAE.CQ01NAM","name":"CQ01NAM","label":"Customized Query 01 Name","type":"string","length":19},{"OID":"IT.ADAE.AOCC01FL","name":"AOCC01FL","label":"1st Occurrence 01 Flag for CQ01","type":"string","length":1}],"itemData":[[1,"CDISCPILOT01","701","01-701-1015","Placebo",0,63,"<65",1,"WHITE",1,"F","Y",19725,19906,19726,"",2,null,null,null,"","APPLICATION SITE ERYTHEMA","APPLICATION SITE REDNESS",null,"APPLICATION SITE ERYTHEMA",null,"HLT_0617",null,"HLGT_0152",null,"GENERAL DISORDERS AND ADMINISTRATION SITE CONDITIONS","GENERAL DISORDERS AND ADMINISTRATION SITE CONDITIONS",null,"MILD","N","N","N","N","N","N","N","N","PROBABLE","","NOT RECOVERED/NOT RESOLVED",1,"Y","Y","Y","Y","","","","DERMATOLOGIC EVENTS","Y"],[2,"CDISCPILOT01","701","01-701-1015","Placebo",0,63,"<65",1,"WHITE",1,"F","Y",19725,19906,19726,"",2,null,null,null,"","APPLICATION SITE PRURITUS","APPLICATION SITE ITCHING",null,"APPLICATION SITE PRURITUS",null,"HLT_0317",null,"HLGT_0338",null,"GENERAL DISORDERS AND ADMINISTRATION SITE CONDITIONS","GENERAL DISORDERS AND ADMINISTRATION SITE CONDITIONS",null,"MILD","N","N","N","N","N","N","N","N","PROBABLE","","NOT RECOVERED/NOT RESOLVED",2,"Y","","","Y","","","","DERMATOLOGIC EVENTS",""],[3,"CDISCPILOT01","701","01-701-1015","Placebo",0,63,"<65",1,"WHITE",1,"F","Y",19725,19906,19732,"",8,19734,10,3,"DAY","DIARRHOEA","DIARRHEA",null,"DIARRHOEA",null,"HLT_0148",null,"HLGT_0588",null,"GASTROINTESTINAL DISORDERS","GASTROINTESTINAL DISORDERS",null,"MILD","N","N","N","N","N","N","N","N","REMOTE","","RECOVERED/RESOLVED",3,"Y","","Y","Y","","","","",""],[4,"CDISCPILOT01","701","01-701-1023","Placebo",0,64,"<65",1,"WHITE",1,"M","Y",19210,19237,19212,"",3,19235,26,24,"DAY","ERYTHEMA","ERYTHEMA",null,"ERYTHEMA",null,"HLT_0284",null,"HLGT_0192",null,"SKIN AND SUBCUTANEOUS TISSUE DISORDERS","SKIN AND SUBCUTANEOUS TISSUE DISORDERS",null,"MILD","N","N","N","N","N","N","N","N","POSSIBLE","","NOT RECOVERED/NOT RESOLVED",1,"Y","Y","Y","Y","","","","DERMATOLOGIC EVENTS","Y"],[5,"CDISCPILOT01","701","01-701-1023","Placebo",0,64,"<65",1,"WHITE",1,"M","Y",19210,19237,19212,"",3,null,null,null,"","ERYTHEMA","LOCALIZED ERYTHEMA",null,"ERYTHEMA",null,"HLT_0284",null,"HLGT_0192",null,"SKIN AND SUBCUTANEOUS TISSUE DISORDERS","SKIN AND SUBCUTANEOUS TISSUE DISORDERS",null,"MODERATE","N","N","N","N","N","N","N","N","PROBABLE","","NOT RECOVERED/NOT RESOLVED",2,"Y","","","","","","","DERMATOLOGIC EVENTS",""],[6,"CDISCPILOT01","701","01-701-1023","Placebo",0,64,"<65",1,"WHITE",1,"M","Y",19210,19237,19231,"",22,null,null,null,"","ATRIOVENTRICULAR BLOCK SECOND DEGREE","AV BLOCK SECOND DEGREE",null,"ATRIOVENTRICULAR BLOCK SECOND DEGREE",null,"HLT_0415",null,"HLGT_0086",null,"CARDIAC DISORDERS","CARDIAC DISORDERS",null,"MILD","N","N","N","N","N","N","N","N","POSSIBLE","","NOT RECOVERED/NOT RESOLVED",3,"Y","","Y","Y","","","","",""],[7,"CDISCPILOT01","701","01-701-1023","Placebo",0,64,"<65",1,"WHITE",1,"M","Y",19210,19237,19212,"",3,19235,26,24,"DAY","ERYTHEMA","ERYTHEMA",null,"ERYTHEMA",null,"HLT_0284",null,"HLGT_0192",null,"SKIN AND SUBCUTANEOUS TISSUE DISORDERS","SKIN AND SUBCUTANEOUS TISSUE DISORDERS",null,"MILD","N","N","N","N","N","N","N","N","POSSIBLE","","RECOVERED/RESOLVED",4,"Y","","","","","","","DERMATOLOGIC EVENTS",""],[8,"CDISCPILOT01","701","01-701-1028","Xanomeline High Dose",81,71,"65-80",2,"WHITE",1,"M","Y",19558,19737,19560,"",3,null,null,null,"","APPLICATION SITE ERYTHEMA","APPLICATION SITE ERYTHEMA",null,"APPLICATION SITE ERYTHEMA",null,"HLT_0617",null,"HLGT_0152",null,"GENERAL DISORDERS AND ADMINISTRATION SITE CONDITIONS","GENERAL DISORDERS AND ADMINISTRATION SITE CONDITIONS",null,"MILD","N","N","N","N","N","N","N","N","POSSIBLE","","NOT RECOVERED/NOT RESOLVED",1,"Y","Y","Y","Y","","","","DERMATOLOGIC EVENTS","Y"],[9,"CDISCPILOT01","701","01-701-1028","Xanomeline High Dose",81,71,"65-80",2,"WHITE",1,"M","Y",19558,19737,19578,"",21,null,null,null,"","APPLICATION SITE PRURITUS","APPLICATION SITE ITCHING",null,"APPLICATION SITE PRURITUS",null,"HLT_0317",null,"HLGT_0338",null,"GENERAL DISORDERS AND ADMINISTRATION SITE CONDITIONS","GENERAL DISORDERS AND ADMINISTRATION SITE CONDITIONS",null,"MILD","N","N","N","N","N","N","N","N","PROBABLE","","NOT RECOVERED/NOT RESOLVED",2,"Y","","","Y","","","","DERMATOLOGIC EVENTS",""],[10,"CDISCPILOT01","701","01-701-1034","Xanomeline High Dose",81,77,"65-80",2,"WHITE",1,"F","Y",19905,20087,19962,"",58,null,null,null,"","APPLICATION SITE PRURITUS","APPLICATION SITE ITCHING",null,"APPLICATION SITE PRURITUS",null,"HLT_0317",null,"HLGT_0338",null,"GENERAL DISORDERS AND ADMINISTRATION SITE CONDITIONS","GENERAL DISORDERS AND ADMINISTRATION SITE CONDITIONS",null,"MILD","N","N","N","N","N","N","N","N","PROBABLE","","NOT RECOVERED/NOT RESOLVED",1,"Y","Y","Y","Y","","","","DERMATOLOGIC EVENTS","Y"],[11,"CDISCPILOT01","701","01-701-1034","Xanomeline High Dose",81,77,"65-80",2,"WHITE",1,"F","Y",19905,20087,20029,"",125,null,null,null,"","FATIGUE","FATIGUE",null,"FATIGUE",null,"HLT_0043",null,"HLGT_0181",null,"GENERAL DISORDERS AND ADMINISTRATION SITE CONDITIONS","GENERAL DISORDERS AND ADMINISTRATION SITE CONDITIONS",null,"MILD","N","N","N","N","N","N","N","N","POSSIBLE","","NOT RECOVERED/NOT RESOLVED",2,"Y","","","Y","","","","",""],[12,"CDISCPILOT01","701","01-701-1047","Placebo",0,85,">80",3,"WHITE",1,"F","Y",19401,19426,19401,"",1,19401,1,1,"DAY","HIATUS HERNIA","HERNIA HIATAL",null,"HIATUS HERNIA",null,"HLT_0159",null,"HLGT_0109",null,"GASTROINTESTINAL DISORDERS","GASTROINTESTINAL DISORDERS",null,"MODERATE","N","N","N","N","N","N","N","N","NONE","","NOT RECOVERED/NOT RESOLVED",1,"Y","Y","Y","Y","","","","",""],[13,"CDISCPILOT01","701","01-701-1047","Placebo",0,85,">80",3,"WHITE",1,"F","Y",19401,19426,19401,"",1,19401,1,1,"DAY","HIATUS HERNIA","HERNIA HIATAL",null,"HIATUS HERNIA",null,"HLT_0159",null,"HLGT_0109",null,"GASTROINTESTINAL DISORDERS","GASTROINTESTINAL DISORDERS",null,"MODERATE","N","N","N","N","N","N","N","N","NONE","","RECOVERED/RESOLVED",2,"Y","","","","","","","",""],[14,"CDISCPILOT01","701","01-701-1047","Placebo",0,85,">80",3,"WHITE",1,"F","Y",19401,19426,19423,"",23,null,null,null,"","UPPER RESPIRATORY TRACT INFECTION","UPPER RESPIRATORY INFECTION",null,"UPPER RESPIRATORY TRACT INFECTION",null,"HLT_0520",null,"HLGT_0489",null,"INFECTIONS AND INFESTATIONS","INFECTIONS AND INFESTATIONS",null,"MILD","N","N","N","N","N","N","N","N","NONE","","NOT RECOVERED/NOT RESOLVED",3,"Y","","Y","Y","","","","",""],[15,"CDISCPILOT01","701","01-701-1047","Placebo",0,85,">80",3,"WHITE",1,"F","Y",19401,19426,19427,"",27,null,null,null,"","BUNDLE BRANCH BLOCK LEFT","LEFT BUNDLE BRANCH BLOCK",null,"BUNDLE BRANCH BLOCK LEFT",null,"HLT_0281",null,"HLGT_0721",null,"CARDIAC DISORDERS","CARDIAC DISORDERS",null,"MILD","N","N","N","N","N","N","N","N","NONE","","NOT RECOVERED/NOT RESOLVED",4,"Y","","Y","Y","","","","",""],[16,"CDISCPILOT01","701","01-701-1097","Xanomeline Low Dose",54,68,"65-80",2,"WHITE",1,"M","Y",19724,19913,19726,"",3,null,null,null,"","ERYTHEMA","ERYTHEMA",null,"ERYTHEMA",null,"HLT_0284",null,"HLGT_0192",null,"SKIN AND SUBCUTANEOUS TISSUE DISORDERS","SKIN AND SUBCUTANEOUS TISSUE DISORDERS",null,"MILD","N","N","N","N","N","N","N","N","POSSIBLE","","NOT RECOVERED/NOT RESOLVED",1,"Y","Y","Y","Y","","","","DERMATOLOGIC EVENTS","Y"],[17,"CDISCPILOT01","701","01-701-1097","Xanomeline Low Dose",54,68,"65-80",2,"WHITE",1,"M","Y",19724,19913,19774,"",51,19774,51,1,"DAY","PRURITUS GENERALISED","GENERALIZED PRURITUS",null,"PRURITUS GENERALISED",null,"HLT_0123",null,"HLGT_0689",null,"SKIN AND SUBCUTANEOUS TISSUE DISORDERS","SKIN AND SUBCUTANEOUS TISSUE DISORDERS",null,"MODERATE","N","N","N","N","N","N","N","N","POSSIBLE","","RECOVERED/RESOLVED",2,"Y","","","Y","","","","DERMATOLOGIC EVENTS",""],[18,"CDISCPILOT01","701","01-701-1097","Xanomeline Low Dose",54,68,"65-80",2,"WHITE",1,"M","Y",19724,19913,19774,"",51,19776,53,3,"DAY","APPLICATION SITE VESICLES","APPLICATION SITE BLISTER",null,"APPLICATION SITE VESICLES",null,"HLT_0180",null,"HLGT_0576",null,"GENERAL DISORDERS AND ADMINISTRATION SITE CONDITIONS","GENERAL DISORDERS AND ADMINISTRATION SITE CONDITIONS",null,"MILD","N","N","N","N","N","N","N","N","PROBABLE","","RECOVERED/RESOLVED",3,"Y","","Y","Y","","","","DERMATOLOGIC EVENTS",""],[19,"CDISCPILOT01","701","01-701-1097","Xanomeline Low Dose",54,68,"65-80",2,"WHITE",1,"M","Y",19724,19913,19775,"",52,null,null,null,"","APPLICATION SITE PRURITUS","APPLICATION SITE ITCHING",null,"APPLICATION SITE PRURITUS",null,"HLT_0317",null,"HLGT_0338",null,"GENERAL DISORDERS AND ADMINISTRATION SITE CONDITIONS","GENERAL DISORDERS AND ADMINISTRATION SITE CONDITIONS",null,"MILD","N","N","N","N","N","N","N","N","POSSIBLE","","NOT RECOVERED/NOT RESOLVED",4,"Y","","","Y","","","","DERMATOLOGIC EVENTS",""],[20,"CDISCPILOT01","701","01-701-1097","Xanomeline Low Dose",54,68,"65-80",2,"WHITE",1,"M","Y",19724,19913,19803,"",80,19803,80,1,"DAY","PRURITUS GENERALISED","GENERALIZED PRURITUS",null,"PRURITUS GENERALISED",null,"HLT_0123",null,"HLGT_0689",null,"SKIN AND SUBCUTANEOUS TISSUE DISORDERS","SKIN AND SUBCUTANEOUS TISSUE DISORDERS",null,"MODERATE","N","N","N","N","N","N","N","N","POSSIBLE","","RECOVERED/RESOLVED",5,"Y","","","","","","","DERMATOLOGIC EVENTS",""],[21,"CDISCPILOT01","701","01-701-1097","Xanomeline Low Dose",54,68,"65-80",2,"WHITE",1,"M","Y",19724,19913,19813,"",90,19813,90,1,"DAY","PRURITUS GENERALISED","GENERALIZED PRURITUS",null,"PRURITUS GENERALISED",null,"HLT_0123",null,"HLGT_0689",null,"SKIN AND SUBCUTANEOUS TISSUE DISORDERS","SKIN AND SUBCUTANEOUS TISSUE DISORDERS",null,"MODERATE","N","N","N","N","N","N","N","N","POSSIBLE","","RECOVERED/RESOLVED",6,"Y","","","","","","","DERMATOLOGIC EVENTS",""],[22,"CDISCPILOT01","701","01-701-1097","Xanomeline Low Dose",54,68,"65-80",2,"WHITE",1,"M","Y",19724,19913,19832,"",109,19833,110,2,"DAY","PRURITUS GENERALISED","GENERALIZED PRURITUS",null,"PRURITUS GENERALISED",null,"HLT_0123",null,"HLGT_0689",null,"SKIN AND SUBCUTANEOUS TISSUE DISORDERS","SKIN AND SUBCUTANEOUS TISSUE DISORDERS",null,"MODERATE","N","N","N","N","N","N","N","N","POSSIBLE","","RECOVERED/RESOLVED",7,"Y","","","","","","","DERMATOLOGIC EVENTS",""],[23,"CDISCPILOT01","701","01-701-1097","Xanomeline Low Dose",54,68,"65-80",2,"WHITE",1,"M","Y",19724,19913,19832,"",109,19835,112,4,"DAY","PHARYNGOLARYNGEAL PAIN","SORE THROAT",null,"PHARYNGOLARYNGEAL PAIN",null,"HLT_0130",null,"HLGT_0402",null,"RESPIRATORY, THORACIC AND MEDIASTINAL DISORDERS","RESPIRATORY, THORACIC AND MEDIASTINAL DISORDERS",null,"MILD","N","N","N","N","N","N","N","N","NONE","","RECOVERED/RESOLVED",8,"Y","","Y","Y","","","","",""],[24,"CDISCPILOT01","701","01-701-1097","Xanomeline Low Dose",54,68,"65-80",2,"WHITE",1,"M","Y",19724,19913,19832,"",109,19835,112,4,"DAY","NASAL CONGESTION","NASAL CONGESTION",null,"NASAL CONGESTION",null,"HLT_0118",null,"HLGT_0549",null,"RESPIRATORY, THORACIC AND MEDIASTINAL DISORDERS","RESPIRATORY, THORACIC AND MEDIASTINAL DISORDERS",null,"MILD","N","N","N","N","N","N","N","N","NONE","","RECOVERED/RESOLVED",9,"Y","","","Y","","","","",""],[25,"CDISCPILOT01","701","01-701-1097","Xanomeline Low Dose",54,68,"65-80",2,"WHITE",1,"M","Y",19724,19913,19775,"",52,null,null,null,"","APPLICATION SITE PRURITUS","APPLICATION SITE ITCHING",null,"APPLICATION SITE PRURITUS",null,"HLT_0317",null,"HLGT_0338",null,"GENERAL DISORDERS AND ADMINISTRATION SITE CONDITIONS","GENERAL DISORDERS AND ADMINISTRATION SITE CONDITIONS",null,"MODERATE","N","N","N","N","N","N","N","N","POSSIBLE","","NOT RECOVERED/NOT RESOLVED",10,"Y","","","","","","","DERMATOLOGIC EVENTS",""],[26,"CDISCPILOT01","701","01-701-1111","Xanomeline Low Dose",54,81,">80",3,"WHITE",1,"F","Y",19243,19252,19238,"",-5,19243,1,6,"DAY","ERYTHEMA","ERYTHEMA",null,"ERYTHEMA",null,"HLT_0284",null,"HLGT_0192",null,"SKIN AND SUBCUTANEOUS TISSUE DISORDERS","SKIN AND SUBCUTANEOUS TISSUE DISORDERS",null,"MILD","N","N","N","N","N","N","N","N","NONE","","NOT RECOVERED/NOT RESOLVED",1,"","","","","","","","DERMATOLOGIC EVENTS",""],[27,"CDISCPILOT01","701","01-701-1111","Xanomeline Low Dose",54,81,">80",3,"WHITE",1,"F","Y",19243,19252,19238,"",-5,19243,1,6,"DAY","PRURITUS","ITCHING",null,"PRURITUS",null,"HLT_0778",null,"HLGT_0695",null,"SKIN AND SUBCUTANEOUS TISSUE DISORDERS","SKIN AND SUBCUTANEOUS TISSUE DISORDERS",null,"MILD","N","N","N","N","N","N","N","N","NONE","","NOT RECOVERED/NOT RESOLVED",2,"","","","","","","","DERMATOLOGIC EVENTS",""],[28,"CDISCPILOT01","701","01-701-1111","Xanomeline Low Dose",54,81,">80",3,"WHITE",1,"F","Y",19243,19252,19182,"",-61,null,null,null,"","LOCALISED INFECTION","LOCALIZED INFECTION",null,"LOCALISED INFECTION",null,"HLT_0435",null,"HLGT_0557",null,"INFECTIONS AND INFESTATIONS","INFECTIONS AND INFESTATIONS",null,"MODERATE","N","N","N","N","N","N","N","N","NONE","","NOT RECOVERED/NOT RESOLVED",3,"","","","","","","","",""],[29,"CDISCPILOT01","701","01-701-1111","Xanomeline Low Dose",54,81,">80",3,"WHITE",1,"F","Y",19243,19252,19238,"",-5,19243,1,6,"DAY","ERYTHEMA","ERYTHEMA",null,"ERYTHEMA",null,"HLT_0284",null,"HLGT_0192",null,"SKIN AND SUBCUTANEOUS TISSUE DISORDERS","SKIN AND SUBCUTANEOUS TISSUE DISORDERS",null,"MILD","N","N","N","N","N","N","N","N","NONE","","RECOVERED/RESOLVED",4,"","","","","","","","DERMATOLOGIC EVENTS",""],[30,"CDISCPILOT01","701","01-701-1111","Xanomeline Low Dose",54,81,">80",3,"WHITE",1,"F","Y",19243,19252,19238,"",-5,19243,1,6,"DAY","PRURITUS","ITCHING",null,"PRURITUS",null,"HLT_0778",null,"HLGT_0695",null,"SKIN AND SUBCUTANEOUS TISSUE DISORDERS","SKIN AND SUBCUTANEOUS TISSUE DISORDERS",null,"MILD","N","N","N","N","N","N","N","N","NONE","","RECOVERED/RESOLVED",5,"","","","","","","","DERMATOLOGIC EVENTS",""],[31,"CDISCPILOT01","701","01-701-1111","Xanomeline Low Dose",54,81,">80",3,"WHITE",1,"F","Y",19243,19252,19243,"",1,null,null,null,"","MICTURITION URGENCY","URINARY URGENCY",null,"MICTURITION URGENCY",null,"HLT_0294",null,"HLGT_0483",null,"RENAL AND URINARY DISORDERS","RENAL AND URINARY DISORDERS",null,"MILD","N","N","N","N","N","N","N","N","NONE","","NOT RECOVERED/NOT RESOLVED",6,"Y","Y","Y","Y","","","","",""],[32,"CDISCPILOT01","701","01-701-1111","Xanomeline Low Dose",54,81,">80",3,"WHITE",1,"F","Y",19243,19252,19249,"",7,null,null,null,"","ARTHRALGIA","GENERALIZED JOINT PAIN",null,"ARTHRALGIA",null,"HLT_0375",null,"HLGT_0610",null,"MUSCULOSKELETAL AND CONNECTIVE TISSUE DISORDERS","MUSCULOSKELETAL AND CONNECTIVE TISSUE DISORDERS",null,"MODERATE","N","N","N","N","N","N","N","N","NONE","","NOT RECOVERED/NOT RESOLVED",7,"Y","","Y","Y","","","","",""],[33,"CDISCPILOT01","701","01-701-1111","Xanomeline Low Dose",54,81,">80",3,"WHITE",1,"F","Y",19243,19252,19249,"",7,null,null,null,"","CELLULITIS","CELLULITIS OF LEG",null,"CELLULITIS",null,"HLT_0613",null,"HLGT_0066",null,"INFECTIONS AND INFESTATIONS","INFECTIONS AND INFESTATIONS",null,"MODERATE","N","N","N","N","N","N","N","N","NONE","","NOT RECOVERED/NOT RESOLVED",8,"Y","","Y","Y","","","","",""],[34,"CDISCPILOT01","701","01-701-1115","Xanomeline Low Dose",54,84,">80",3,"WHITE",1,"M","Y",19327,19381,19329,"",3,null,null,null,"","APPLICATION SITE ERYTHEMA","APPLICATION SITE REDNESS",null,"APPLICATION SITE ERYTHEMA",null,"HLT_0617",null,"HLGT_0152",null,"GENERAL DISORDERS AND ADMINISTRATION SITE CONDITIONS","GENERAL DISORDERS AND ADMINISTRATION SITE CONDITIONS",null,"MILD","N","N","N","N","N","N","N","N","PROBABLE","","NOT RECOVERED/NOT RESOLVED",1,"Y","Y","Y","Y","","","","DERMATOLOGIC EVENTS","Y"],[35,"CDISCPILOT01","701","01-701-1115","Xanomeline Low Dose",54,84,">80",3,"WHITE",1,"M","Y",19327,19381,19329,"",3,null,null,null,"","APPLICATION SITE PRURITUS","APPLICATION SITE ITCHING",null,"APPLICATION SITE PRURITUS",null,"HLT_0317",null,"HLGT_0338",null,"GENERAL DISORDERS AND ADMINISTRATION SITE CONDITIONS","GENERAL DISORDERS AND ADMINISTRATION SITE CONDITIONS",null,"MILD","N","N","N","N","N","N","N","N","PROBABLE","","NOT RECOVERED/NOT RESOLVED",2,"Y","","","Y","","","","DERMATOLOGIC EVENTS",""],[36,"CDISCPILOT01","701","01-701-1115","Xanomeline Low Dose",54,84,">80",3,"WHITE",1,"M","Y",19327,19381,19353,"",27,19353,27,1,"DAY","APPLICATION SITE IRRITATION","APPLICATION SITE BURNING",null,"APPLICATION SITE IRRITATION",null,"HLT_0061",null,"HLGT_0346",null,"GENERAL DISORDERS AND ADMINISTRATION SITE CONDITIONS","GENERAL DISORDERS AND ADMINISTRATION SITE CONDITIONS",null,"MILD","N","N","N","N","N","N","N","N","POSSIBLE","","NOT RECOVERED/NOT RESOLVED",3,"Y","","","Y","","","","DERMATOLOGIC EVENTS",""],[37,"CDISCPILOT01","701","01-701-1115","Xanomeline Low Dose",54,84,">80",3,"WHITE",1,"M","Y",19327,19381,19353,"",27,19353,27,1,"DAY","APPLICATION SITE IRRITATION","APPLICATION SITE BURNING",null,"APPLICATION SITE IRRITATION",null,"HLT_0061",null,"HLGT_0346",null,"GENERAL DISORDERS AND ADMINISTRATION SITE CONDITIONS","GENERAL DISORDERS AND ADMINISTRATION SITE CONDITIONS",null,"MILD","N","N","N","N","N","N","N","N","POSSIBLE","","RECOVERED/RESOLVED",4,"Y","","","","","","","DERMATOLOGIC EVENTS",""],[38,"CDISCPILOT01","701","01-701-1115","Xanomeline Low Dose",54,84,">80",3,"WHITE",1,"M","Y",19327,19381,19329,"",3,null,null,null,"","APPLICATION SITE ERYTHEMA","APPLICATION SITE REDNESS",null,"APPLICATION SITE ERYTHEMA",null,"HLT_0617",null,"HLGT_0152",null,"GENERAL DISORDERS AND ADMINISTRATION SITE CONDITIONS","GENERAL DISORDERS AND ADMINISTRATION SITE CONDITIONS",null,"MODERATE","N","N","N","N","N","N","N","N","PROBABLE","","NOT RECOVERED/NOT RESOLVED",5,"Y","","","","","","","DERMATOLOGIC EVENTS",""],[39,"CDISCPILOT01","701","01-701-1115","Xanomeline Low Dose",54,84,">80",3,"WHITE",1,"M","Y",19327,19381,19329,"",3,null,null,null,"","APPLICATION SITE PRURITUS","APPLICATION SITE ITCHING",null,"APPLICATION SITE PRURITUS",null,"HLT_0317",null,"HLGT_0338",null,"GENERAL DISORDERS AND ADMINISTRATION SITE CONDITIONS","GENERAL DISORDERS AND ADMINISTRATION SITE CONDITIONS",null,"MODERATE","N","N","N","N","N","N","N","N","PROBABLE","","NOT RECOVERED/NOT RESOLVED",6,"Y","","","","","","","DERMATOLOGIC EVENTS",""],[40,"CDISCPILOT01","701","01-701-1115","Xanomeline Low Dose",54,84,">80",3,"WHITE",1,"M","Y",19327,19381,19372,"",46,null,null,null,"","FATIGUE","FATIGUE",null,"FATIGUE",null,"HLT_0043",null,"HLGT_0181",null,"GENERAL DISORDERS AND ADMINISTRATION SITE CONDITIONS","GENERAL DISORDERS AND ADMINISTRATION SITE CONDITIONS",null,"MODERATE","N","N","N","N","N","N","N","N","REMOTE","","NOT RECOVERED/NOT RESOLVED",7,"Y","","","Y","","","","",""],[41,"CDISCPILOT01","701","01-701-1115","Xanomeline Low Dose",54,84,">80",3,"WHITE",1,"M","Y",19327,19381,19377,"",51,null,null,null,"","APPLICATION SITE IRRITATION","APPLICATION SITE BURNING",null,"APPLICATION SITE IRRITATION",null,"HLT_0061",null,"HLGT_0346",null,"GENERAL DISORDERS AND ADMINISTRATION SITE CONDITIONS","GENERAL DISORDERS AND ADMINISTRATION SITE CONDITIONS",null,"MODERATE","N","N","N","N","N","N","N","N","PROBABLE","","NOT RECOVERED/NOT RESOLVED",8,"Y","","","","","","","DERMATOLOGIC EVENTS",""],[42,"CDISCPILOT01","701","01-701-1115","Xanomeline Low Dose",54,84,">80",3,"WHITE",1,"M","Y",19327,19381,19377,"",51,null,null,null,"","APPLICATION SITE DERMATITIS","APPLICATION SITE RASH",null,"APPLICATION SITE DERMATITIS",null,"HLT_0343",null,"HLGT_0241",null,"GENERAL DISORDERS AND ADMINISTRATION SITE CONDITIONS","GENERAL DISORDERS AND ADMINISTRATION SITE CONDITIONS",null,"MODERATE","N","N","N","N","N","N","N","N","PROBABLE","","NOT RECOVERED/NOT RESOLVED",9,"Y","","","Y","","","","DERMATOLOGIC EVENTS",""],[43,"CDISCPILOT01","701","01-701-1118","Placebo",0,52,"<65",1,"WHITE",1,"M","Y",19794,19975,null,"",null,null,null,null,"","COUGH","COUGH",null,"COUGH",null,"HLT_0701",null,"HLGT_0280",null,"RESPIRATORY, THORACIC AND MEDIASTINAL DISORDERS","RESPIRATORY, THORACIC AND MEDIASTINAL DISORDERS",null,"MILD","N","N","N","N","N","N","N","N","NONE","","NOT RECOVERED/NOT RESOLVED",1,"","","","","","","","",""],[44,"CDISCPILOT01","701","01-701-1130","Placebo",0,84,">80",3,"WHITE",1,"M","Y",19769,19951,19791,"",23,19798,30,8,"DAY","URINARY TRACT INFECTION","URINARY TRACT INFECTION",null,"URINARY TRACT INFECTION",null,"HLT_0161",null,"HLGT_0093",null,"INFECTIONS AND INFESTATIONS","INFECTIONS AND INFESTATIONS",null,"MILD","N","N","N","N","N","N","N","N","NONE","","NOT RECOVERED/NOT RESOLVED",1,"Y","Y","Y","Y","","","","",""],[45,"CDISCPILOT01","701","01-701-1130","Placebo",0,84,">80",3,"WHITE",1,"M","Y",19769,19951,19791,"",23,19791,23,1,"DAY","PYREXIA","FEVER",null,"PYREXIA",null,"HLT_0310",null,"HLGT_0652",null,"GENERAL DISORDERS AND ADMINISTRATION SITE CONDITIONS","GENERAL DISORDERS AND ADMINISTRATION SITE CONDITIONS",null,"MILD","N","N","N","N","N","N","N","N","NONE","","RECOVERED/RESOLVED",2,"Y","","Y","Y","","","","",""],[46,"CDISCPILOT01","701","01-701-1130","Placebo",0,84,">80",3,"WHITE",1,"M","Y",19769,19951,19791,"",23,19798,30,8,"DAY","URINARY TRACT INFECTION","URINARY TRACT INFECTION",null,"URINARY TRACT INFECTION",null,"HLT_0161",null,"HLGT_0093",null,"INFECTIONS AND INFESTATIONS","INFECTIONS AND INFESTATIONS",null,"MILD","N","N","N","N","N","N","N","N","NONE","","RECOVERED/RESOLVED",3,"Y","","","","","","","",""],[47,"CDISCPILOT01","701","01-701-1130","Placebo",0,84,">80",3,"WHITE",1,"M","Y",19769,19951,19852,"",84,19852,84,1,"DAY","EYE SWELLING","EYES SWOLLEN",null,"EYE SWELLING",null,"HLT_0008",null,"HLGT_0466",null,"EYE DISORDERS","EYE DISORDERS",null,"MILD","N","N","N","N","N","N","N","N","NONE","","RECOVERED/RESOLVED",4,"Y","","Y","Y","","","","",""],[48,"CDISCPILOT01","701","01-701-1130","Placebo",0,84,">80",3,"WHITE",1,"M","Y",19769,19951,19852,"",84,19852,84,1,"DAY","EYE ALLERGY","EYE ALLERGY",null,"EYE ALLERGY",null,"HLT_0256",null,"HLGT_0071",null,"EYE DISORDERS","EYE DISORDERS",null,"MILD","N","N","N","N","N","N","N","N","NONE","","RECOVERED/RESOLVED",5,"Y","","","Y","","","","",""],[49,"CDISCPILOT01","701","01-701-1130","Placebo",0,84,">80",3,"WHITE",1,"M","Y",19769,19951,19865,"",97,null,null,null,"","EYE PRURITUS","EYE ITCHING",null,"EYE PRURITUS",null,"HLT_0523",null,"HLGT_0240",null,"EYE DISORDERS","EYE DISORDERS",null,"MILD","N","N","N","N","N","N","N","N","REMOTE","","NOT RECOVERED/NOT RESOLVED",6,"Y","","","Y","","","","",""],[50,"CDISCPILOT01","701","01-701-1130","Placebo",0,84,">80",3,"WHITE",1,"M","Y",19769,19951,19865,"",97,null,null,null,"","PRURITUS","ITCHING BOTH HANDS",null,"PRURITUS",null,"HLT_0778",null,"HLGT_0695",null,"SKIN AND SUBCUTANEOUS TISSUE DISORDERS","SKIN AND SUBCUTANEOUS TISSUE DISORDERS",null,"MILD","N","N","N","N","N","N","N","N","REMOTE","","NOT RECOVERED/NOT RESOLVED",7,"Y","","Y","Y","","","","DERMATOLOGIC EVENTS","Y"],[51,"CDISCPILOT01","701","01-701-1130","Placebo",0,84,">80",3,"WHITE",1,"M","Y",19769,19951,19865,"",97,null,null,null,"","NASAL CONGESTION","NASAL CONGESTION",null,"NASAL CONGESTION",null,"HLT_0118",null,"HLGT_0549",null,"RESPIRATORY, THORACIC AND MEDIASTINAL DISORDERS","RESPIRATORY, THORACIC AND MEDIASTINAL DISORDERS",null,"MILD","N","N","N","N","N","N","N","N","REMOTE","","NOT RECOVERED/NOT RESOLVED",8,"Y","","Y","Y","","","","",""],[52,"CDISCPILOT01","701","01-701-1133","Xanomeline High Dose",81,81,">80",3,"WHITE",1,"F","Y",19294,19476,19354,"",61,null,null,null,"","APPLICATION SITE ERYTHEMA","APPLICATION SITE REDNESS",null,"APPLICATION SITE ERYTHEMA",null,"HLT_0617",null,"HLGT_0152",null,"GENERAL DISORDERS AND ADMINISTRATION SITE CONDITIONS","GENERAL DISORDERS AND ADMINISTRATION SITE CONDITIONS",null,"MILD","N","N","N","N","N","N","N","N","PROBABLE","","NOT RECOVERED/NOT RESOLVED",1,"Y","Y","Y","Y","","","","DERMATOLOGIC EVENTS","Y"],[53,"CDISCPILOT01","701","01-701-1133","Xanomeline High Dose",81,81,">80",3,"WHITE",1,"F","Y",19294,19476,19354,"",61,null,null,null,"","APPLICATION SITE PRURITUS","APPLICATION SITE ITCHING",null,"APPLICATION SITE PRURITUS",null,"HLT_0317",null,"HLGT_0338",null,"GENERAL DISORDERS AND ADMINISTRATION SITE CONDITIONS","GENERAL DISORDERS AND ADMINISTRATION SITE CONDITIONS",null,"MILD","N","N","N","N","N","N","N","N","PROBABLE","","NOT RECOVERED/NOT RESOLVED",2,"Y","","","Y","","","","DERMATOLOGIC EVENTS",""],[54,"CDISCPILOT01","701","01-701-1133","Xanomeline High Dose",81,81,">80",3,"WHITE",1,"F","Y",19294,19476,19354,"",61,null,null,null,"","APPLICATION SITE ERYTHEMA","APPLICATION SITE REDNESS",null,"APPLICATION SITE ERYTHEMA",null,"HLT_0617",null,"HLGT_0152",null,"GENERAL DISORDERS AND ADMINISTRATION SITE CONDITIONS","GENERAL DISORDERS AND ADMINISTRATION SITE CONDITIONS",null,"MODERATE","N","N","N","N","N","N","N","N","PROBABLE","","NOT RECOVERED/NOT RESOLVED",3,"Y","","","","","","","DERMATOLOGIC EVENTS",""],[55,"CDISCPILOT01","701","01-701-1133","Xanomeline High Dose",81,81,">80",3,"WHITE",1,"F","Y",19294,19476,19354,"",61,null,null,null,"","APPLICATION SITE PRURITUS","APPLICATION SITE ITCHING",null,"APPLICATION SITE PRURITUS",null,"HLT_0317",null,"HLGT_0338",null,"GENERAL DISORDERS AND ADMINISTRATION SITE CONDITIONS","GENERAL DISORDERS AND ADMINISTRATION SITE CONDITIONS",null,"MODERATE","N","N","N","N","N","N","N","N","PROBABLE","","NOT RECOVERED/NOT RESOLVED",4,"Y","","","","","","","DERMATOLOGIC EVENTS",""],[56,"CDISCPILOT01","701","01-701-1146","Xanomeline High Dose",81,75,"65-80",2,"WHITE",1,"F","Y",19498,19535,19494,"",-4,19511,14,18,"DAY","RASH","RASH",null,"RASH",null,"HLT_0762",null,"HLGT_0198",null,"SKIN AND SUBCUTANEOUS TISSUE DISORDERS","SKIN AND SUBCUTANEOUS TISSUE DISORDERS",null,"MILD","N","N","N","N","N","N","N","N","NONE","","NOT RECOVERED/NOT RESOLVED",1,"","","","","","","","DERMATOLOGIC EVENTS",""],[57,"CDISCPILOT01","701","01-701-1146","Xanomeline High Dose",81,75,"65-80",2,"WHITE",1,"F","Y",19498,19535,19494,"",-4,19511,14,18,"DAY","RASH","RASH",null,"RASH",null,"HLT_0762",null,"HLGT_0198",null,"SKIN AND SUBCUTANEOUS TISSUE DISORDERS","SKIN AND SUBCUTANEOUS TISSUE DISORDERS",null,"MILD","N","N","N","N","N","N","N","N","NONE","","RECOVERED/RESOLVED",2,"","","","","","","","DERMATOLOGIC EVENTS",""],[58,"CDISCPILOT01","701","01-701-1146","Xanomeline High Dose",81,75,"65-80",2,"WHITE",1,"F","Y",19498,19535,19510,"",13,19511,14,2,"DAY","APPLICATION SITE IRRITATION","APPLICATION SITE IRRITATION",null,"APPLICATION SITE IRRITATION",null,"HLT_0061",null,"HLGT_0346",null,"GENERAL DISORDERS AND ADMINISTRATION SITE CONDITIONS","GENERAL DISORDERS AND ADMINISTRATION SITE CONDITIONS",null,"MILD","N","N","N","N","N","N","N","N","PROBABLE","","RECOVERED/RESOLVED",3,"Y","Y","Y","Y","","","","DERMATOLOGIC EVENTS","Y"],[59,"CDISCPILOT01","701","01-701-1146","Xanomeline High Dose",81,75,"65-80",2,"WHITE",1,"F","Y",19498,19535,19512,"",15,null,null,null,"","FATIGUE","FATIGUE",null,"FATIGUE",null,"HLT_0043",null,"HLGT_0181",null,"GENERAL DISORDERS AND ADMINISTRATION SITE CONDITIONS","GENERAL DISORDERS AND ADMINISTRATION SITE CONDITIONS",null,"MILD","N","N","N","N","N","N","N","N","POSSIBLE","","NOT RECOVERED/NOT RESOLVED",4,"Y","","","Y","","","","",""],[60,"CDISCPILOT01","701","01-701-1146","Xanomeline High Dose",81,75,"65-80",2,"WHITE",1,"F","Y",19498,19535,19519,"",22,null,null,null,"","APPLICATION SITE ERYTHEMA","APPLICATION SITE ERYTHEMA",null,"APPLICATION SITE ERYTHEMA",null,"HLT_0617",null,"HLGT_0152",null,"GENERAL DISORDERS AND ADMINISTRATION SITE CONDITIONS","GENERAL DISORDERS AND ADMINISTRATION SITE CONDITIONS",null,"MILD","N","N","N","N","N","N","N","N","PROBABLE","","NOT RECOVERED/NOT RESOLVED",5,"Y","","","Y","","","","DERMATOLOGIC EVENTS",""],[61,"CDISCPILOT01","701","01-701-1146","Xanomeline High Dose",81,75,"65-80",2,"WHITE",1,"F","Y",19498,19535,19519,"",22,null,null,null,"","APPLICATION SITE PRURITUS","APPLICATION SITE ITCHING",null,"APPLICATION SITE PRURITUS",null,"HLT_0317",null,"HLGT_0338",null,"GENERAL DISORDERS AND ADMINISTRATION SITE CONDITIONS","GENERAL DISORDERS AND ADMINISTRATION SITE CONDITIONS",null,"MILD","N","N","N","N","N","N","N","N","PROBABLE","","NOT RECOVERED/NOT RESOLVED",6,"Y","","","Y","","","","DERMATOLOGIC EVENTS",""],[62,"CDISCPILOT01","701","01-701-1146","Xanomeline High Dose",81,75,"65-80",2,"WHITE",1,"F","Y",19498,19535,19519,"",22,null,null,null,"","APPLICATION SITE ERYTHEMA","APPLICATION SITE ERYTHEMA",null,"APPLICATION SITE ERYTHEMA",null,"HLT_0617",null,"HLGT_0152",null,"GENERAL DISORDERS AND ADMINISTRATION SITE CONDITIONS","GENERAL DISORDERS AND ADMINISTRATION SITE CONDITIONS",null,"MODERATE","N","N","N","N","N","N","N","N","PROBABLE","","NOT RECOVERED/NOT RESOLVED",7,"Y","","","","","","","DERMATOLOGIC EVENTS",""],[63,"CDISCPILOT01","701","01-701-1146","Xanomeline High Dose",81,75,"65-80",2,"WHITE",1,"F","Y",19498,19535,19519,"",22,null,null,null,"","APPLICATION SITE PRURITUS","APPLICATION SITE ITCHING",null,"APPLICATION SITE PRURITUS",null,"HLT_0317",null,"HLGT_0338",null,"GENERAL DISORDERS AND ADMINISTRATION SITE CONDITIONS","GENERAL DISORDERS AND ADMINISTRATION SITE CONDITIONS",null,"MODERATE","N","N","N","N","N","N","N","N","PROBABLE","","NOT RECOVERED/NOT RESOLVED",8,"Y","","","","","","","DERMATOLOGIC EVENTS",""],[64,"CDISCPILOT01","701","01-701-1146","Xanomeline High Dose",81,75,"65-80",2,"WHITE",1,"F","Y",19498,19535,19531,"",34,null,null,null,"","APPLICATION SITE PAIN","APPLICATION SITE PAIN",null,"APPLICATION SITE PAIN",null,"HLT_0342",null,"HLGT_0085",null,"GENERAL DISORDERS AND ADMINISTRATION SITE CONDITIONS","GENERAL DISORDERS AND ADMINISTRATION SITE CONDITIONS",null,"MODERATE","N","N","N","N","N","N","N","N","PROBABLE","","NOT RECOVERED/NOT RESOLVED",9,"Y","","","Y","","","","DERMATOLOGIC EVENTS",""],[65,"CDISCPILOT01","701","01-701-1146","Xanomeline High Dose",81,75,"65-80",2,"WHITE",1,"F","Y",19498,19535,19535,"",38,null,null,null,"","APPLICATION SITE VESICLES","APPLICATION SITE VESICLES",null,"APPLICATION SITE VESICLES",null,"HLT_0180",null,"HLGT_0576",null,"GENERAL DISORDERS AND ADMINISTRATION SITE CONDITIONS","GENERAL DISORDERS AND ADMINISTRATION SITE CONDITIONS",null,"MODERATE","N","N","N","N","N","N","N","N","PROBABLE","","NOT RECOVERED/NOT RESOLVED",10,"Y","","","Y","","","","DERMATOLOGIC EVENTS",""],[66,"CDISCPILOT01","701","01-701-1146","Xanomeline High Dose",81,75,"65-80",2,"WHITE",1,"F","Y",19498,19535,19535,"",38,null,null,null,"","APPLICATION SITE IRRITATION","APPLICATION SITE BURNING",null,"APPLICATION SITE IRRITATION",null,"HLT_0061",null,"HLGT_0346",null,"GENERAL DISORDERS AND ADMINISTRATION SITE CONDITIONS","GENERAL DISORDERS AND ADMINISTRATION SITE CONDITIONS",null,"MODERATE","N","N","N","N","N","N","N","N","PROBABLE","","NOT RECOVERED/NOT RESOLVED",11,"Y","","","","","","","DERMATOLOGIC EVENTS",""],[67,"CDISCPILOT01","701","01-701-1148","Xanomeline High Dose",81,57,"<65",1,"WHITE",1,"M","Y",19593,19774,19595,"",3,null,null,null,"","APPLICATION SITE ERYTHEMA","APPLICATION SITE REDNESS",null,"APPLICATION SITE ERYTHEMA",null,"HLT_0617",null,"HLGT_0152",null,"GENERAL DISORDERS AND ADMINISTRATION SITE CONDITIONS","GENERAL DISORDERS AND ADMINISTRATION SITE CONDITIONS",null,"MILD","N","N","N","N","N","N","N","N","PROBABLE","","NOT RECOVERED/NOT RESOLVED",1,"Y","Y","Y","Y","","","","DERMATOLOGIC EVENTS","Y"],[68,"CDISCPILOT01","701","01-701-1148","Xanomeline High Dose",81,57,"<65",1,"WHITE",1,"M","Y",19593,19774,19595,"",3,null,null,null,"","APPLICATION SITE PRURITUS","APPLICATION SITE ITCHING",null,"APPLICATION SITE PRURITUS",null,"HLT_0317",null,"HLGT_0338",null,"GENERAL DISORDERS AND ADMINISTRATION SITE CONDITIONS","GENERAL DISORDERS AND ADMINISTRATION SITE CONDITIONS",null,"MILD","N","N","N","N","N","N","N","N","PROBABLE","","NOT RECOVERED/NOT RESOLVED",2,"Y","","","Y","","","","DERMATOLOGIC EVENTS",""],[69,"CDISCPILOT01","701","01-701-1148","Xanomeline High Dose",81,57,"<65",1,"WHITE",1,"M","Y",19593,19774,19643,"",51,19672,80,30,"DAY","LOWER RESPIRATORY TRACT INFECTION","CHEST COLD",null,"LOWER RESPIRATORY TRACT INFECTION",null,"HLT_0052",null,"HLGT_0217",null,"INFECTIONS AND INFESTATIONS","INFECTIONS AND INFESTATIONS",null,"MODERATE","N","N","N","N","N","N","N","N","NONE","","NOT RECOVERED/NOT RESOLVED",3,"Y","","Y","Y","","","","",""],[70,"CDISCPILOT01","701","01-701-1148","Xanomeline High Dose",81,57,"<65",1,"WHITE",1,"M","Y",19593,19774,19643,"",51,19672,80,30,"DAY","LOWER RESPIRATORY TRACT INFECTION","CHEST COLD",null,"LOWER RESPIRATORY TRACT INFECTION",null,"HLT_0052",null,"HLGT_0217",null,"INFECTIONS AND INFESTATIONS","INFECTIONS AND INFESTATIONS",null,"MODERATE","N","N","N","N","N","N","N","N","NONE","","RECOVERED/RESOLVED",4,"Y","","","","","","","",""],[71,"CDISCPILOT01","701","01-701-1148","Xanomeline High Dose",81,57,"<65",1,"WHITE",1,"M","Y",19593,19774,19707,"",115,19709,117,3,"DAY","FLANK PAIN","FLANK PAIN",null,"FLANK PAIN",null,"HLT_0484",null,"HLGT_0543",null,"MUSCULOSKELETAL AND CONNECTIVE TISSUE DISORDERS","MUSCULOSKELETAL AND CONNECTIVE TISSUE DISORDERS",null,"MODERATE","N","N","N","N","N","N","N","N","NONE","","RECOVERED/RESOLVED",5,"Y","","Y","Y","","","","",""],[72,"CDISCPILOT01","701","01-701-1148","Xanomeline High Dose",81,57,"<65",1,"WHITE",1,"M","Y",19593,19774,19709,"",117,19709,117,1,"DAY","CALCULUS URETHRAL","URETHRAL CALCULUS",null,"CALCULUS URETHRAL",null,"HLT_0550",null,"HLGT_0414",null,"RENAL AND URINARY DISORDERS","RENAL AND URINARY DISORDERS",null,"MODERATE","N","N","N","N","N","N","N","N","NONE","","RECOVERED/RESOLVED",6,"Y","","Y","Y","","","","",""],[73,"CDISCPILOT01","701","01-701-1148","Xanomeline High Dose",81,57,"<65",1,"WHITE",1,"M","Y",19593,19774,19726,"",134,19726,134,1,"DAY","EPISTAXIS","NOSE BLEED",null,"EPISTAXIS",null,"HLT_0386",null,"HLGT_0577",null,"RESPIRATORY, THORACIC AND MEDIASTINAL DISORDERS","RESPIRATORY, THORACIC AND MEDIASTINAL DISORDERS",null,"MILD","N","N","N","N","N","N","N","N","NONE","","RECOVERED/RESOLVED",7,"Y","","Y","Y","","","","",""],[74,"CDISCPILOT01","701","01-701-1148","Xanomeline High Dose",81,57,"<65",1,"WHITE",1,"M","Y",19593,19774,19024,"D",-569,null,null,null,"","DYSPEPSIA","INDIGESTION",null,"DYSPEPSIA",null,"HLT_0244",null,"HLGT_0716",null,"GASTROINTESTINAL DISORDERS","GASTROINTESTINAL DISORDERS",null,"MODERATE","N","N","N","N","N","N","N","N","NONE","","NOT RECOVERED/NOT RESOLVED",8,"","","","","","","","",""],[75,"CDISCPILOT01","701","01-701-1148","Xanomeline High Dose",81,57,"<65",1,"WHITE",1,"M","Y",19593,19774,19568,"",-25,null,null,null,"","DEPRESSED MOOD","DEPRESSED MOOD",null,"DEPRESSED MOOD",null,"HLT_0784",null,"HLGT_0122",null,"PSYCHIATRIC DISORDERS","PSYCHIATRIC DISORDERS",null,"MODERATE","N","N","N","N","N","N","N","N","NONE","","NOT RECOVERED/NOT RESOLVED",9,"","","","","","","","",""],[76,"CDISCPILOT01","701","01-701-1148","Xanomeline High Dose",81,57,"<65",1,"WHITE",1,"M","Y",19593,19774,19766,"",174,null,null,null,"","ACTINIC KERATOSIS","ACTINIC KERATOSIS",null,"ACTINIC KERATOSIS",null,"HLT_0609",null,"HLGT_0490",null,"SKIN AND SUBCUTANEOUS TISSUE DISORDERS","SKIN AND SUBCUTANEOUS TISSUE DISORDERS",null,"MILD","N","N","N","N","N","N","N","N","NONE","","NOT RECOVERED/NOT RESOLVED",10,"Y","","Y","Y","","","","DERMATOLOGIC EVENTS",""],[77,"CDISCPILOT01","701","01-701-1153","Placebo",0,79,"65-80",2,"WHITE",1,"F","Y",19624,19798,19644,"",21,19668,45,25,"DAY","INCREASED APPETITE","INCREASED APPETITE",null,"INCREASED APPETITE",null,"HLT_0566",null,"HLGT_0769",null,"METABOLISM AND NUTRITION DISORDERS","METABOLISM AND NUTRITION DISORDERS",null,"MILD","N","N","N","N","N","N","N","N","POSSIBLE","","NOT RECOVERED/NOT RESOLVED",1,"Y","Y","Y","Y","","","","",""],[78,"CDISCPILOT01","701","01-701-1153","Placebo",0,79,"65-80",2,"WHITE",1,"F","Y",19624,19798,19644,"",21,19668,45,25,"DAY","INCREASED APPETITE","INCREASED APPETITE",null,"INCREASED APPETITE",null,"HLT_0566",null,"HLGT_0769",null,"METABOLISM AND NUTRITION DISORDERS","METABOLISM AND NUTRITION DISORDERS",null,"MILD","N","N","N","N","N","N","N","N","POSSIBLE","","RECOVERED/RESOLVED",2,"Y","","","","","","","",""],[79,"CDISCPILOT01","701","01-701-1180","Xanomeline High Dose",81,56,"<65",1,"WHITE",1,"M","Y",19401,19435,19401,"",1,19401,1,1,"DAY","VOMITING","VOMITING",null,"VOMITING",null,"HLT_0016",null,"HLGT_0350",null,"GASTROINTESTINAL DISORDERS","GASTROINTESTINAL DISORDERS",null,"MILD","N","N","N","N","N","N","N","N","NONE","","NOT RECOVERED/NOT RESOLVED",1,"Y","Y","Y","Y","","","","",""],[80,"CDISCPILOT01","701","01-701-1180","Xanomeline High Dose",81,56,"<65",1,"WHITE",1,"M","Y",19401,19435,19401,"",1,19401,1,1,"DAY","VOMITING","VOMITING",null,"VOMITING",null,"HLT_0016",null,"HLGT_0350",null,"GASTROINTESTINAL DISORDERS","GASTROINTESTINAL DISORDERS",null,"MILD","N","N","N","N","N","N","N","N","NONE","","RECOVERED/RESOLVED",2,"Y","","","","","","","",""],[81,"CDISCPILOT01","701","01-701-1180","Xanomeline High Dose",81,56,"<65",1,"WHITE",1,"M","Y",19401,19435,19404,"",4,19436,36,33,"DAY","MICTURITION URGENCY","URINARY URGENCY",null,"MICTURITION URGENCY",null,"HLT_0294",null,"HLGT_0483",null,"RENAL AND URINARY DISORDERS","RENAL AND URINARY DISORDERS",null,"MILD","N","N","N","N","N","N","N","N","POSSIBLE","","NOT RECOVERED/NOT RESOLVED",3,"Y","","Y","Y","","","","",""],[82,"CDISCPILOT01","701","01-701-1180","Xanomeline High Dose",81,56,"<65",1,"WHITE",1,"M","Y",19401,19435,null,"",null,null,null,null,"","HEADACHE","HEADACHE",null,"HEADACHE",null,"HLT_0064",null,"HLGT_0344",null,"NERVOUS SYSTEM DISORDERS","NERVOUS SYSTEM DISORDERS",null,"MODERATE","N","N","N","N","N","N","N","N","NONE","","NOT RECOVERED/NOT RESOLVED",4,"","","","","","","","",""],[83,"CDISCPILOT01","701","01-701-1180","Xanomeline High Dose",81,56,"<65",1,"WHITE",1,"M","Y",19401,19435,19423,"",23,19424,24,2,"DAY","NASOPHARYNGITIS","COLD",null,"NASOPHARYNGITIS",null,"HLT_0036",null,"HLGT_0709",null,"INFECTIONS AND INFESTATIONS","INFECTIONS AND INFESTATIONS",null,"MILD","N","N","N","N","N","N","N","N","NONE","","RECOVERED/RESOLVED",5,"Y","","Y","Y","","","","",""],[84,"CDISCPILOT01","701","01-701-1180","Xanomeline High Dose",81,56,"<65",1,"WHITE",1,"M","Y",19401,19435,19404,"",4,19436,36,33,"DAY","MICTURITION URGENCY","URINARY URGENCY",null,"MICTURITION URGENCY",null,"HLT_0294",null,"HLGT_0483",null,"RENAL AND URINARY DISORDERS","RENAL AND URINARY DISORDERS",null,"MILD","N","N","N","N","N","N","N","N","POSSIBLE","","RECOVERED/RESOLVED",6,"Y","","","","","","","",""],[85,"CDISCPILOT01","701","01-701-1180","Xanomeline High Dose",81,56,"<65",1,"WHITE",1,"M","Y",19401,19435,19436,"",36,null,null,null,"","APPLICATION SITE VESICLES","APPLICATION SITE BLISTER",null,"APPLICATION SITE VESICLES",null,"HLT_0180",null,"HLGT_0576",null,"GENERAL DISORDERS AND ADMINISTRATION SITE CONDITIONS","GENERAL DISORDERS AND ADMINISTRATION SITE CONDITIONS",null,"MODERATE","N","N","N","N","N","N","N","N","POSSIBLE","","NOT RECOVERED/NOT RESOLVED",7,"Y","","Y","Y","","","","DERMATOLOGIC EVENTS","Y"],[86,"CDISCPILOT01","701","01-701-1180","Xanomeline High Dose",81,56,"<65",1,"WHITE",1,"M","Y",19401,19435,19436,"",36,null,null,null,"","APPLICATION SITE PRURITUS","APPLICATION SITE ITCHING",null,"APPLICATION SITE PRURITUS",null,"HLT_0317",null,"HLGT_0338",null,"GENERAL DISORDERS AND ADMINISTRATION SITE CONDITIONS","GENERAL DISORDERS AND ADMINISTRATION SITE CONDITIONS",null,"MODERATE","N","N","N","N","N","N","N","N","POSSIBLE","","NOT RECOVERED/NOT RESOLVED",8,"Y","","","Y","","","","DERMATOLOGIC EVENTS",""],[87,"CDISCPILOT01","701","01-701-1180","Xanomeline High Dose",81,56,"<65",1,"WHITE",1,"M","Y",19401,19435,19436,"",36,null,null,null,"","APPLICATION SITE ERYTHEMA","APPLICATION SITE ERYTHEMA",null,"APPLICATION SITE ERYTHEMA",null,"HLT_0617",null,"HLGT_0152",null,"GENERAL DISORDERS AND ADMINISTRATION SITE CONDITIONS","GENERAL DISORDERS AND ADMINISTRATION SITE CONDITIONS",null,"MODERATE","N","N","N","N","N","N","N","N","POSSIBLE","","NOT RECOVERED/NOT RESOLVED",9,"Y","","","Y","","","","DERMATOLOGIC EVENTS",""],[88,"CDISCPILOT01","701","01-701-1181","Xanomeline High Dose",81,79,"65-80",2,"WHITE",1,"F","Y",19697,19701,19701,"",5,19701,5,1,"DAY","AGITATION","AGITATION",null,"AGITATION",null,"HLT_0140",null,"HLGT_0170",null,"PSYCHIATRIC DISORDERS","PSYCHIATRIC DISORDERS",null,"MODERATE","N","N","N","N","N","N","N","N","NONE","","RECOVERED/RESOLVED",1,"Y","Y","Y","Y","","","","",""],[89,"CDISCPILOT01","701","01-701-1188","Xanomeline Low Dose",54,71,"65-80",2,"WHITE",1,"M","Y",19404,19441,19405,"",2,null,null,null,"","ERYTHEMA","ERYTHEMA",null,"ERYTHEMA",null,"HLT_0284",null,"HLGT_0192",null,"SKIN AND SUBCUTANEOUS TISSUE DISORDERS","SKIN AND SUBCUTANEOUS TISSUE DISORDERS",null,"MILD","N","N","N","N","N","N","N","N","PROBABLE","","NOT RECOVERED/NOT RESOLVED",1,"Y","Y","Y","Y","","","","DERMATOLOGIC EVENTS","Y"],[90,"CDISCPILOT01","701","01-701-1188","Xanomeline Low Dose",54,71,"65-80",2,"WHITE",1,"M","Y",19404,19441,19405,"",2,null,null,null,"","PRURITUS","ITCHING",null,"PRURITUS",null,"HLT_0778",null,"HLGT_0695",null,"SKIN AND SUBCUTANEOUS TISSUE DISORDERS","SKIN AND SUBCUTANEOUS TISSUE DISORDERS",null,"MILD","N","N","N","N","N","N","N","N","PROBABLE","","NOT RECOVERED/NOT RESOLVED",2,"Y","","","Y","","","","DERMATOLOGIC EVENTS",""],[91,"CDISCPILOT01","701","01-701-1188","Xanomeline Low Dose",54,71,"65-80",2,"WHITE",1,"M","Y",19404,19441,19405,"",2,null,null,null,"","ERYTHEMA","ERYTHEMA",null,"ERYTHEMA",null,"HLT_0284",null,"HLGT_0192",null,"SKIN AND SUBCUTANEOUS TISSUE DISORDERS","SKIN AND SUBCUTANEOUS TISSUE DISORDERS",null,"MODERATE","N","N","N","N","N","N","N","N","PROBABLE","","NOT RECOVERED/NOT RESOLVED",3,"Y","","","","","","","DERMATOLOGIC EVENTS",""],[92,"CDISCPILOT01","701","01-701-1188","Xanomeline Low Dose",54,71,"65-80",2,"WHITE",1,"M","Y",19404,19441,19405,"",2,null,null,null,"","PRURITUS","ITCHING",null,"PRURITUS",null,"HLT_0778",null,"HLGT_0695",null,"SKIN AND SUBCUTANEOUS TISSUE DISORDERS","SKIN AND SUBCUTANEOUS TISSUE DISORDERS",null,"MODERATE","N","N","N","N","N","N","N","N","PROBABLE","","NOT RECOVERED/NOT RESOLVED",4,"Y","","","","","","","DERMATOLOGIC EVENTS",""],[93,"CDISCPILOT01","701","01-701-1188","Xanomeline Low Dose",54,71,"65-80",2,"WHITE",1,"M","Y",19404,19441,19421,"",18,null,null,null,"","URTICARIA","WELTS",null,"URTICARIA",null,"HLT_0420",null,"HLGT_0705",null,"SKIN AND SUBCUTANEOUS TISSUE DISORDERS","SKIN AND SUBCUTANEOUS TISSUE DISORDERS",null,"MILD","N","N","N","N","N","N","N","N","PROBABLE","","NOT RECOVERED/NOT RESOLVED",5,"Y","","","Y","","","","DERMATOLOGIC EVENTS",""],[94,"CDISCPILOT01","701","01-701-1188","Xanomeline Low Dose",54,71,"65-80",2,"WHITE",1,"M","Y",19404,19441,19421,"",18,null,null,null,"","URTICARIA","WELTS",null,"URTICARIA",null,"HLT_0420",null,"HLGT_0705",null,"SKIN AND SUBCUTANEOUS TISSUE DISORDERS","SKIN AND SUBCUTANEOUS TISSUE DISORDERS",null,"MODERATE","N","N","N","N","N","N","N","N","PROBABLE","","NOT RECOVERED/NOT RESOLVED",6,"Y","","","","","","","DERMATOLOGIC EVENTS",""],[95,"CDISCPILOT01","701","01-701-1188","Xanomeline Low Dose",54,71,"65-80",2,"WHITE",1,"M","Y",19404,19441,19438,"",35,null,null,null,"","APPLICATION SITE URTICARIA","APPLICATION SITE URTICARIA",null,"APPLICATION SITE URTICARIA",null,"HLT_0196",null,"HLGT_0233",null,"GENERAL DISORDERS AND ADMINISTRATION SITE CONDITIONS","GENERAL DISORDERS AND ADMINISTRATION SITE CONDITIONS",null,"MILD","N","N","N","N","N","N","N","N","PROBABLE","","NOT RECOVERED/NOT RESOLVED",7,"Y","","Y","Y","","","","DERMATOLOGIC EVENTS",""],[96,"CDISCPILOT01","701","01-701-1188","Xanomeline Low Dose",54,71,"65-80",2,"WHITE",1,"M","Y",19404,19441,19438,"",35,null,null,null,"","URTICARIA","WELTS",null,"URTICARIA",null,"HLT_0420",null,"HLGT_0705",null,"SKIN AND SUBCUTANEOUS TISSUE DISORDERS","SKIN AND SUBCUTANEOUS TISSUE DISORDERS",null,"MILD","N","N","N","N","N","N","N","N","PROBABLE","","NOT RECOVERED/NOT RESOLVED",8,"Y","","","","","","","DERMATOLOGIC EVENTS",""],[97,"CDISCPILOT01","701","01-701-1192","Xanomeline Low Dose",54,80,"65-80",2,"WHITE",1,"F","Y",19196,19378,19208,"",13,19208,13,1,"DAY","NASAL MUCOSA BIOPSY","NASAL MUCOSA BIOPSY",null,"NASAL MUCOSA BIOPSY",null,"HLT_0680",null,"HLGT_0396",null,"INVESTIGATIONS","INVESTIGATIONS",null,"MILD","N","N","N","N","N","N","N","N","NONE","","RECOVERED/RESOLVED",1,"Y","Y","Y","Y","","","","",""],[98,"CDISCPILOT01","701","01-701-1192","Xanomeline Low Dose",54,80,"65-80",2,"WHITE",1,"F","Y",19196,19378,19212,"",17,19250,55,39,"DAY","SECRETION DISCHARGE","SECRETION DISCHARGE",null,"SECRETION DISCHARGE",null,"HLT_0683",null,"HLGT_0575",null,"GENERAL DISORDERS AND ADMINISTRATION SITE CONDITIONS","GENERAL DISORDERS AND ADMINISTRATION SITE CONDITIONS",null,"MILD","N","N","N","N","N","N","N","N","NONE","","NOT RECOVERED/NOT RESOLVED",2,"Y","","Y","Y","","","","",""],[99,"CDISCPILOT01","701","01-701-1192","Xanomeline Low Dose",54,80,"65-80",2,"WHITE",1,"F","Y",19196,19378,19212,"",17,19250,55,39,"DAY","ERYTHEMA","ERYTHEMA FACIAL",null,"ERYTHEMA",null,"HLT_0284",null,"HLGT_0192",null,"SKIN AND SUBCUTANEOUS TISSUE DISORDERS","SKIN AND SUBCUTANEOUS TISSUE DISORDERS",null,"MILD","N","N","N","N","N","N","N","N","NONE","","NOT RECOVERED/NOT RESOLVED",3,"Y","","Y","Y","","","","DERMATOLOGIC EVENTS","Y"],[100,"CDISCPILOT01","701","01-701-1192","Xanomeline Low Dose",54,80,"65-80",2,"WHITE",1,"F","Y",19196,19378,18414,"D",-782,null,null,null,"","COUGH","COUGH",null,"COUGH",null,"HLT_0701",null,"HLGT_0280",null,"RESPIRATORY, THORACIC AND MEDIASTINAL DISORDERS","RESPIRATORY, THORACIC AND MEDIASTINAL DISORDERS",null,"MODERATE","N","N","N","N","N","N","N","N","NONE","","NOT RECOVERED/NOT RESOLVED",4,"","","","","","","","",""],[101,"CDISCPILOT01","701","01-701-1192","Xanomeline Low Dose",54,80,"65-80",2,"WHITE",1,"F","Y",19196,19378,19212,"",17,19250,55,39,"DAY","SECRETION DISCHARGE","SECRETION DISCHARGE",null,"SECRETION DISCHARGE",null,"HLT_0683",null,"HLGT_0575",null,"GENERAL DISORDERS AND ADMINISTRATION SITE CONDITIONS","GENERAL DISORDERS AND ADMINISTRATION SITE CONDITIONS",null,"MILD","N","N","N","N","N","N","N","N","NONE","","RECOVERED/RESOLVED",5,"Y","","","","","","","",""],[102,"CDISCPILOT01","701","01-701-1192","Xanomeline Low Dose",54,80,"65-80",2,"WHITE",1,"F","Y",19196,19378,19212,"",17,19250,55,39,"DAY","ERYTHEMA","ERYTHEMA FACIAL",null,"ERYTHEMA",null,"HLT_0284",null,"HLGT_0192",null,"SKIN AND SUBCUTANEOUS TISSUE DISORDERS","SKIN AND SUBCUTANEOUS TISSUE DISORDERS",null,"MILD","N","N","N","N","N","N","N","N","NONE","","RECOVERED/RESOLVED",6,"Y","","","","","","","DERMATOLOGIC EVENTS",""],[103,"CDISCPILOT01","701","01-701-1192","Xanomeline Low Dose",54,80,"65-80",2,"WHITE",1,"F","Y",19196,19378,19243,"",48,19272,77,30,"DAY","PNEUMONIA","PNEUMONIA",null,"PNEUMONIA",null,"HLT_0251",null,"HLGT_0671",null,"INFECTIONS AND INFESTATIONS","INFECTIONS AND INFESTATIONS",null,"MODERATE","N","N","N","N","N","Y","N","N","NONE","","NOT RECOVERED/NOT RESOLVED",7,"Y","","Y","Y","","","","",""],[104,"CDISCPILOT01","701","01-701-1192","Xanomeline Low Dose",54,80,"65-80",2,"WHITE",1,"F","Y",19196,19378,19243,"",48,19266,71,24,"DAY","MUSCULAR WEAKNESS","MUSCULAR WEAKNESS",null,"MUSCULAR WEAKNESS",null,"HLT_0444",null,"HLGT_0211",null,"MUSCULOSKELETAL AND CONNECTIVE TISSUE DISORDERS","MUSCULOSKELETAL AND CONNECTIVE TISSUE DISORDERS",null,"MODERATE","N","N","N","N","N","N","N","N","NONE","","NOT RECOVERED/NOT RESOLVED",8,"Y","","Y","Y","","","","",""],[105,"CDISCPILOT01","701","01-701-1192","Xanomeline Low Dose",54,80,"65-80",2,"WHITE",1,"F","Y",19196,19378,18414,"D",-782,null,null,null,"","COUGH","COUGH",null,"COUGH",null,"HLT_0701",null,"HLGT_0280",null,"RESPIRATORY, THORACIC AND MEDIASTINAL DISORDERS","RESPIRATORY, THORACIC AND MEDIASTINAL DISORDERS",null,"MILD","N","N","N","N","N","N","N","N","NONE","","NOT RECOVERED/NOT RESOLVED",9,"","","","","","","","",""],[106,"CDISCPILOT01","701","01-701-1192","Xanomeline Low Dose",54,80,"65-80",2,"WHITE",1,"F","Y",19196,19378,19243,"",48,19272,77,30,"DAY","PNEUMONIA","PNEUMONIA",null,"PNEUMONIA",null,"HLT_0251",null,"HLGT_0671",null,"INFECTIONS AND INFESTATIONS","INFECTIONS AND INFESTATIONS",null,"MODERATE","N","N","N","N","N","Y","N","N","NONE","","RECOVERED/RESOLVED",10,"Y","","","","","","","",""],[107,"CDISCPILOT01","701","01-701-1192","Xanomeline Low Dose",54,80,"65-80",2,"WHITE",1,"F","Y",19196,19378,19243,"",48,19266,71,24,"DAY","MUSCULAR WEAKNESS","MUSCULAR WEAKNESS",null,"MUSCULAR WEAKNESS",null,"HLT_0444",null,"HLGT_0211",null,"MUSCULOSKELETAL AND CONNECTIVE TISSUE DISORDERS","MUSCULOSKELETAL AND CONNECTIVE TISSUE DISORDERS",null,"MODERATE","N","N","N","N","N","N","N","N","NONE","","RECOVERED/RESOLVED",11,"Y","","","","","","","",""],[108,"CDISCPILOT01","701","01-701-1192","Xanomeline Low Dose",54,80,"65-80",2,"WHITE",1,"F","Y",19196,19378,19332,"",137,19343,148,12,"DAY","APPLICATION SITE IRRITATION","APPLICATION SITE BURNING",null,"APPLICATION SITE IRRITATION",null,"HLT_0061",null,"HLGT_0346",null,"GENERAL DISORDERS AND ADMINISTRATION SITE CONDITIONS","GENERAL DISORDERS AND ADMINISTRATION SITE CONDITIONS",null,"MILD","N","N","N","N","N","N","N","N","PROBABLE","","NOT RECOVERED/NOT RESOLVED",12,"Y","","","Y","","","","DERMATOLOGIC EVENTS",""],[109,"CDISCPILOT01","701","01-701-1192","Xanomeline Low Dose",54,80,"65-80",2,"WHITE",1,"F","Y",19196,19378,19332,"",137,null,null,null,"","APPLICATION SITE ERYTHEMA","APPLICATION SITE REDNESS",null,"APPLICATION SITE ERYTHEMA",null,"HLT_0617",null,"HLGT_0152",null,"GENERAL DISORDERS AND ADMINISTRATION SITE CONDITIONS","GENERAL DISORDERS AND ADMINISTRATION SITE CONDITIONS",null,"MILD","N","N","N","N","N","N","N","N","PROBABLE","","NOT RECOVERED/NOT RESOLVED",13,"Y","","","Y","","","","DERMATOLOGIC EVENTS",""],[110,"CDISCPILOT01","701","01-701-1192","Xanomeline Low Dose",54,80,"65-80",2,"WHITE",1,"F","Y",19196,19378,19332,"",137,null,null,null,"","APPLICATION SITE PRURITUS","APPLICATION SITE ITCHING",null,"APPLICATION SITE PRURITUS",null,"HLT_0317",null,"HLGT_0338",null,"GENERAL DISORDERS AND ADMINISTRATION SITE CONDITIONS","GENERAL DISORDERS AND ADMINISTRATION SITE CONDITIONS",null,"MILD","N","N","N","N","N","N","N","N","PROBABLE","","NOT RECOVERED/NOT RESOLVED",14,"Y","","","Y","","","","DERMATOLOGIC EVENTS",""],[111,"CDISCPILOT01","701","01-701-1192","Xanomeline Low Dose",54,80,"65-80",2,"WHITE",1,"F","Y",19196,19378,19332,"",137,19343,148,12,"DAY","APPLICATION SITE IRRITATION","APPLICATION SITE BURNING",null,"APPLICATION SITE IRRITATION",null,"HLT_0061",null,"HLGT_0346",null,"GENERAL DISORDERS AND ADMINISTRATION SITE CONDITIONS","GENERAL DISORDERS AND ADMINISTRATION SITE CONDITIONS",null,"MILD","N","N","N","N","N","N","N","N","PROBABLE","","RECOVERED/RESOLVED",15,"Y","","","","","","","DERMATOLOGIC EVENTS",""],[112,"CDISCPILOT01","701","01-701-1203","Placebo",0,81,">80",3,"BLACK OR AFRICAN AMERICAN",2,"F","Y",19391,19573,19438,"",48,19438,48,1,"DAY","EYE LASER SURGERY","EYE LASER SURGERY",null,"EYE LASER SURGERY",null,"HLT_0355",null,"HLGT_0189",null,"SURGICAL AND MEDICAL PROCEDURES","SURGICAL AND MEDICAL PROCEDURES",null,"MILD","N","N","N","N","N","N","N","N","NONE","","RECOVERED/RESOLVED",1,"Y","Y","Y","Y","","","","",""],[113,"CDISCPILOT01","701","01-701-1211","Xanomeline Low Dose",54,76,"65-80",2,"WHITE",1,"F","Y",19312,19370,19313,"",2,null,null,null,"","APPLICATION SITE PRURITUS","APPLICATION SITE ITCHING",null,"APPLICATION SITE PRURITUS",null,"HLT_0317",null,"HLGT_0338",null,"GENERAL DISORDERS AND ADMINISTRATION SITE CONDITIONS","GENERAL DISORDERS AND ADMINISTRATION SITE CONDITIONS",null,"MILD","N","N","N","N","N","N","N","N","POSSIBLE","","NOT RECOVERED/NOT RESOLVED",1,"Y","Y","Y","Y","","","","DERMATOLOGIC EVENTS","Y"],[114,"CDISCPILOT01","701","01-701-1211","Xanomeline Low Dose",54,76,"65-80",2,"WHITE",1,"F","Y",19312,19370,19318,"",7,19318,7,1,"DAY","JOINT DISLOCATION","SHOULDER DISLOCATION",null,"JOINT DISLOCATION",null,"HLT_0035",null,"HLGT_0227",null,"INJURY, POISONING AND PROCEDURAL COMPLICATIONS","INJURY, POISONING AND PROCEDURAL COMPLICATIONS",null,"MODERATE","N","N","N","N","N","N","N","N","NONE","","RECOVERED/RESOLVED",2,"Y","","Y","Y","","","","",""],[115,"CDISCPILOT01","701","01-701-1211","Xanomeline Low Dose",54,76,"65-80",2,"WHITE",1,"F","Y",19312,19370,19318,"",7,null,null,null,"","SHOULDER PAIN","SHOULDER PAIN",null,"SHOULDER PAIN",null,"HLT_0527",null,"HLGT_0288",null,"MUSCULOSKELETAL AND CONNECTIVE TISSUE DISORDERS","MUSCULOSKELETAL AND CONNECTIVE TISSUE DISORDERS",null,"MILD","N","N","N","N","N","N","N","N","NONE","","NOT RECOVERED/NOT RESOLVED",3,"Y","","Y","Y","","","","",""],[116,"CDISCPILOT01","701","01-701-1211","Xanomeline Low Dose",54,76,"65-80",2,"WHITE",1,"F","Y",19312,19370,19319,"",8,null,null,null,"","INCONTINENCE","INCONTINENCE",null,"INCONTINENCE",null,"HLT_0560",null,"HLGT_0503",null,"RENAL AND URINARY DISORDERS","RENAL AND URINARY DISORDERS",null,"MILD","N","N","N","N","N","N","N","N","NONE","","NOT RECOVERED/NOT RESOLVED",4,"Y","","Y","Y","","","","",""],[117,"CDISCPILOT01","701","01-701-1211","Xanomeline Low Dose",54,76,"65-80",2,"WHITE",1,"F","Y",19312,19370,19326,"",15,null,null,null,"","APPLICATION SITE ERYTHEMA","APPLICATION SITE REDNESS",null,"APPLICATION SITE ERYTHEMA",null,"HLT_0617",null,"HLGT_0152",null,"GENERAL DISORDERS AND ADMINISTRATION SITE CONDITIONS","GENERAL DISORDERS AND ADMINISTRATION SITE CONDITIONS",null,"MILD","N","N","N","N","N","N","N","N","POSSIBLE","","NOT RECOVERED/NOT RESOLVED",5,"Y","","","Y","","","","DERMATOLOGIC EVENTS",""],[118,"CDISCPILOT01","701","01-701-1211","Xanomeline Low Dose",54,76,"65-80",2,"WHITE",1,"F","Y",19312,19370,19336,"",25,null,null,null,"","SKIN LACERATION","LACERATION OF FACE",null,"SKIN LACERATION",null,"HLT_0075",null,"HLGT_0118",null,"INJURY, POISONING AND PROCEDURAL COMPLICATIONS","INJURY, POISONING AND PROCEDURAL COMPLICATIONS",null,"MILD","N","N","N","N","N","N","N","N","NONE","","NOT RECOVERED/NOT RESOLVED",6,"Y","","","Y","","","","",""],[119,"CDISCPILOT01","701","01-701-1211","Xanomeline Low Dose",54,76,"65-80",2,"WHITE",1,"F","Y",19312,19370,19369,"",58,null,null,null,"","CONFUSIONAL STATE","CONFUSION",null,"CONFUSIONAL STATE",null,"HLT_0642",null,"HLGT_0329",null,"PSYCHIATRIC DISORDERS","PSYCHIATRIC DISORDERS",null,"MODERATE","N","N","N","N","N","N","N","N","NONE","","NOT RECOVERED/NOT RESOLVED",7,"Y","","Y","Y","","","","",""],[120,"CDISCPILOT01","701","01-701-1211","Xanomeline Low Dose",54,76,"65-80",2,"WHITE",1,"F","Y",19312,19370,19369,"",58,null,null,null,"","DYSPNOEA","SHORTNESS OF BREATH",null,"DYSPNOEA",null,"HLT_0296",null,"HLGT_0255",null,"RESPIRATORY, THORACIC AND MEDIASTINAL DISORDERS","RESPIRATORY, THORACIC AND MEDIASTINAL DISORDERS",null,"MODERATE","N","N","N","N","N","N","N","N","NONE","","NOT RECOVERED/NOT RESOLVED",8,"Y","","Y","Y","","","","",""],[121,"CDISCPILOT01","701","01-701-1211","Xanomeline Low Dose",54,76,"65-80",2,"WHITE",1,"F","Y",19312,19370,19372,"",61,19372,61,1,"DAY","SUDDEN DEATH","SUDDEN DEATH",null,"SUDDEN DEATH",null,"HLT_0142",null,"HLGT_0272",null,"GENERAL DISORDERS AND ADMINISTRATION SITE CONDITIONS","GENERAL DISORDERS AND ADMINISTRATION SITE CONDITIONS",null,"SEVERE","N","N","N","N","Y","N","Y","N","NONE","","FATAL",9,"Y","","","Y","","","","",""],[122,"CDISCPILOT01","701","01-701-1239","Xanomeline High Dose",81,56,"<65",1,"WHITE",1,"M","Y",19734,19914,19735,"",2,null,null,null,"","ERYTHEMA","ERYTHEMA",null,"ERYTHEMA",null,"HLT_0284",null,"HLGT_0192",null,"SKIN AND SUBCUTANEOUS TISSUE DISORDERS","SKIN AND SUBCUTANEOUS TISSUE DISORDERS",null,"MILD","N","N","N","N","N","N","N","N","POSSIBLE","","NOT RECOVERED/NOT RESOLVED",1,"Y","Y","Y","Y","","","","DERMATOLOGIC EVENTS","Y"],[123,"CDISCPILOT01","701","01-701-1239","Xanomeline High Dose",81,56,"<65",1,"WHITE",1,"M","Y",19734,19914,19735,"",2,null,null,null,"","SKIN ODOUR ABNORMAL","SKIN ODOR ABNORMAL",null,"SKIN ODOUR ABNORMAL",null,"HLT_0510",null,"HLGT_0184",null,"SKIN AND SUBCUTANEOUS TISSUE DISORDERS","SKIN AND SUBCUTANEOUS TISSUE DISORDERS",null,"MILD","N","N","N","N","N","N","N","N","REMOTE","","NOT RECOVERED/NOT RESOLVED",2,"Y","","","Y","","","","DERMATOLOGIC EVENTS",""],[124,"CDISCPILOT01","701","01-701-1239","Xanomeline High Dose",81,56,"<65",1,"WHITE",1,"M","Y",19734,19914,19736,"",3,null,null,null,"","PRURITUS","ITCHING",null,"PRURITUS",null,"HLT_0778",null,"HLGT_0695",null,"SKIN AND SUBCUTANEOUS TISSUE DISORDERS","SKIN AND SUBCUTANEOUS TISSUE DISORDERS",null,"MILD","N","N","N","N","N","N","N","N","POSSIBLE","","NOT RECOVERED/NOT RESOLVED",3,"Y","","","Y","","","","DERMATOLOGIC EVENTS",""],[125,"CDISCPILOT01","701","01-701-1239","Xanomeline High Dose",81,56,"<65",1,"WHITE",1,"M","Y",19734,19914,19743,"",10,19762,29,20,"DAY","APPLICATION SITE IRRITATION","APPLICATION SITE IRRITATION",null,"APPLICATION SITE IRRITATION",null,"HLT_0061",null,"HLGT_0346",null,"GENERAL DISORDERS AND ADMINISTRATION SITE CONDITIONS","GENERAL DISORDERS AND ADMINISTRATION SITE CONDITIONS",null,"MILD","N","N","N","N","N","N","N","N","PROBABLE","","NOT RECOVERED/NOT RESOLVED",4,"Y","","Y","Y","","","","DERMATOLOGIC EVENTS",""],[126,"CDISCPILOT01","701","01-701-1239","Xanomeline High Dose",81,56,"<65",1,"WHITE",1,"M","Y",19734,19914,19743,"",10,19762,29,20,"DAY","APPLICATION SITE IRRITATION","APPLICATION SITE IRRITATION",null,"APPLICATION SITE IRRITATION",null,"HLT_0061",null,"HLGT_0346",null,"GENERAL DISORDERS AND ADMINISTRATION SITE CONDITIONS","GENERAL DISORDERS AND ADMINISTRATION SITE CONDITIONS",null,"MILD","N","N","N","N","N","N","N","N","PROBABLE","","RECOVERED/RESOLVED",5,"Y","","","","","","","DERMATOLOGIC EVENTS",""],[127,"CDISCPILOT01","701","01-701-1239","Xanomeline High Dose",81,56,"<65",1,"WHITE",1,"M","Y",19734,19914,19735,"",2,null,null,null,"","ERYTHEMA","ERYTHEMA",null,"ERYTHEMA",null,"HLT_0284",null,"HLGT_0192",null,"SKIN AND SUBCUTANEOUS TISSUE DISORDERS","SKIN AND SUBCUTANEOUS TISSUE DISORDERS",null,"MODERATE","N","N","N","N","N","N","N","N","POSSIBLE","","NOT RECOVERED/NOT RESOLVED",6,"Y","","","","","","","DERMATOLOGIC EVENTS",""],[128,"CDISCPILOT01","701","01-701-1239","Xanomeline High Dose",81,56,"<65",1,"WHITE",1,"M","Y",19734,19914,19774,"",41,19794,61,21,"DAY","UPPER RESPIRATORY TRACT INFECTION","UPPER RESPIRATORY INFECTION",null,"UPPER RESPIRATORY TRACT INFECTION",null,"HLT_0520",null,"HLGT_0489",null,"INFECTIONS AND INFESTATIONS","INFECTIONS AND INFESTATIONS",null,"MILD","N","N","N","N","N","N","N","N","NONE","","NOT RECOVERED/NOT RESOLVED",7,"Y","","Y","Y","","","","",""],[129,"CDISCPILOT01","701","01-701-1239","Xanomeline High Dose",81,56,"<65",1,"WHITE",1,"M","Y",19734,19914,19774,"",41,19794,61,21,"DAY","UPPER RESPIRATORY TRACT INFECTION","UPPER RESPIRATORY INFECTION",null,"UPPER RESPIRATORY TRACT INFECTION",null,"HLT_0520",null,"HLGT_0489",null,"INFECTIONS AND INFESTATIONS","INFECTIONS AND INFESTATIONS",null,"MILD","N","N","N","N","N","N","N","N","NONE","","RECOVERED/RESOLVED",8,"Y","","","","","","","",""],[130,"CDISCPILOT01","701","01-701-1239","Xanomeline High Dose",81,56,"<65",1,"WHITE",1,"M","Y",19734,19914,19783,"D",50,null,null,null,"","FATIGUE","FATIGUE",null,"FATIGUE",null,"HLT_0043",null,"HLGT_0181",null,"GENERAL DISORDERS AND ADMINISTRATION SITE CONDITIONS","GENERAL DISORDERS AND ADMINISTRATION SITE CONDITIONS",null,"MILD","N","N","N","N","N","N","N","N","REMOTE","","NOT RECOVERED/NOT RESOLVED",9,"Y","","","Y","","","","",""],[131,"CDISCPILOT01","701","01-701-1239","Xanomeline High Dose",81,56,"<65",1,"WHITE",1,"M","Y",19734,19914,19814,"D",81,null,null,null,"","HORDEOLUM","STYE",null,"HORDEOLUM",null,"HLT_0604",null,"HLGT_0290",null,"INFECTIONS AND INFESTATIONS","INFECTIONS AND INFESTATIONS",null,"MILD","N","N","N","N","N","N","N","N","NONE","","NOT RECOVERED/NOT RESOLVED",10,"Y","","","Y","","","","",""],[132,"CDISCPILOT01","701","01-701-1275","Xanomeline High Dose",81,61,"<65",1,"AMERICAN INDIAN OR ALASKA NATIVE",6,"M","Y",19761,19874,19767,"",7,19877,117,111,"DAY","NAUSEA","NAUSEA",null,"NAUSEA",null,"HLT_0742",null,"HLGT_0326",null,"GASTROINTESTINAL DISORDERS","GASTROINTESTINAL DISORDERS",null,"MILD","N","N","N","N","N","N","N","N","POSSIBLE","","NOT RECOVERED/NOT RESOLVED",1,"Y","Y","Y","Y","","","","",""],[133,"CDISCPILOT01","701","01-701-1275","Xanomeline High Dose",81,61,"<65",1,"AMERICAN INDIAN OR ALASKA NATIVE",6,"M","Y",19761,19874,19777,"",17,19777,17,1,"DAY","VOMITING","VOMITING",null,"VOMITING",null,"HLT_0016",null,"HLGT_0350",null,"GASTROINTESTINAL DISORDERS","GASTROINTESTINAL DISORDERS",null,"MILD","N","N","N","N","N","N","N","N","POSSIBLE","","RECOVERED/RESOLVED",2,"Y","","","Y","","","","",""],[134,"CDISCPILOT01","701","01-701-1275","Xanomeline High Dose",81,61,"<65",1,"AMERICAN INDIAN OR ALASKA NATIVE",6,"M","Y",19761,19874,19778,"",18,19886,126,109,"DAY","ERYTHEMA","ERYTHEMA",null,"ERYTHEMA",null,"HLT_0284",null,"HLGT_0192",null,"SKIN AND SUBCUTANEOUS TISSUE DISORDERS","SKIN AND SUBCUTANEOUS TISSUE DISORDERS",null,"MILD","N","N","N","N","N","N","N","N","POSSIBLE","","NOT RECOVERED/NOT RESOLVED",3,"Y","","Y","Y","","","","DERMATOLOGIC EVENTS","Y"],[135,"CDISCPILOT01","701","01-701-1275","Xanomeline High Dose",81,61,"<65",1,"AMERICAN INDIAN OR ALASKA NATIVE",6,"M","Y",19761,19874,19778,"",18,19877,117,100,"DAY","SALIVARY HYPERSECRETION","HYPERSALIVATION",null,"SALIVARY HYPERSECRETION",null,"HLT_0374",null,"HLGT_0488",null,"GASTROINTESTINAL DISORDERS","GASTROINTESTINAL DISORDERS",null,"MILD","N","N","N","N","N","N","N","N","POSSIBLE","","NOT RECOVERED/NOT RESOLVED",4,"Y","","","Y","","","","",""],[136,"CDISCPILOT01","701","01-701-1275","Xanomeline High Dose",81,61,"<65",1,"AMERICAN INDIAN OR ALASKA NATIVE",6,"M","Y",19761,19874,19778,"",18,19877,117,100,"DAY","PAROSMIA","STRANGE SMELL SENSATION",null,"PAROSMIA",null,"HLT_0258",null,"HLGT_0471",null,"NERVOUS SYSTEM DISORDERS","NERVOUS SYSTEM DISORDERS",null,"MILD","N","N","N","N","N","N","N","N","POSSIBLE","","NOT RECOVERED/NOT RESOLVED",5,"Y","","Y","Y","","","","",""],[137,"CDISCPILOT01","701","01-701-1275","Xanomeline High Dose",81,61,"<65",1,"AMERICAN INDIAN OR ALASKA NATIVE",6,"M","Y",19761,19874,19778,"",18,19886,126,109,"DAY","PRURITUS","ITCHING",null,"PRURITUS",null,"HLT_0778",null,"HLGT_0695",null,"SKIN AND SUBCUTANEOUS TISSUE DISORDERS","SKIN AND SUBCUTANEOUS TISSUE DISORDERS",null,"MILD","N","N","N","N","N","N","N","N","POSSIBLE","","NOT RECOVERED/NOT RESOLVED",6,"Y","","","Y","","","","DERMATOLOGIC EVENTS",""],[138,"CDISCPILOT01","701","01-701-1275","Xanomeline High Dose",81,61,"<65",1,"AMERICAN INDIAN OR ALASKA NATIVE",6,"M","Y",19761,19874,19794,"",34,19809,49,16,"DAY","COUGH","COUGH",null,"COUGH",null,"HLT_0701",null,"HLGT_0280",null,"RESPIRATORY, THORACIC AND MEDIASTINAL DISORDERS","RESPIRATORY, THORACIC AND MEDIASTINAL DISORDERS",null,"MILD","N","N","N","N","N","N","N","N","NONE","","NOT RECOVERED/NOT RESOLVED",7,"Y","","Y","Y","","","","",""],[139,"CDISCPILOT01","701","01-701-1275","Xanomeline High Dose",81,61,"<65",1,"AMERICAN INDIAN OR ALASKA NATIVE",6,"M","Y",19761,19874,19794,"",34,19809,49,16,"DAY","NASAL CONGESTION","NASAL CONGESTION",null,"NASAL CONGESTION",null,"HLT_0118",null,"HLGT_0549",null,"RESPIRATORY, THORACIC AND MEDIASTINAL DISORDERS","RESPIRATORY, THORACIC AND MEDIASTINAL DISORDERS",null,"MILD","N","N","N","N","N","N","N","N","NONE","","NOT RECOVERED/NOT RESOLVED",8,"Y","","","Y","","","","",""],[140,"CDISCPILOT01","701","01-701-1275","Xanomeline High Dose",81,61,"<65",1,"AMERICAN INDIAN OR ALASKA NATIVE",6,"M","Y",19761,19874,19794,"",34,19809,49,16,"DAY","COUGH","COUGH",null,"COUGH",null,"HLT_0701",null,"HLGT_0280",null,"RESPIRATORY, THORACIC AND MEDIASTINAL DISORDERS","RESPIRATORY, THORACIC AND MEDIASTINAL DISORDERS",null,"MILD","N","N","N","N","N","N","N","N","NONE","","RECOVERED/RESOLVED",9,"Y","","","","","","","",""],[141,"CDISCPILOT01","701","01-701-1275","Xanomeline High Dose",81,61,"<65",1,"AMERICAN INDIAN OR ALASKA NATIVE",6,"M","Y",19761,19874,19794,"",34,19809,49,16,"DAY","NASAL CONGESTION","NASAL CONGESTION",null,"NASAL CONGESTION",null,"HLT_0118",null,"HLGT_0549",null,"RESPIRATORY, THORACIC AND MEDIASTINAL DISORDERS","RESPIRATORY, THORACIC AND MEDIASTINAL DISORDERS",null,"MILD","N","N","N","N","N","N","N","N","NONE","","RECOVERED/RESOLVED",10,"Y","","","","","","","",""],[142,"CDISCPILOT01","701","01-701-1275","Xanomeline High Dose",81,61,"<65",1,"AMERICAN INDIAN OR ALASKA NATIVE",6,"M","Y",19761,19874,19767,"",7,19877,117,111,"DAY","NAUSEA","NAUSEA",null,"NAUSEA",null,"HLT_0742",null,"HLGT_0326",null,"GASTROINTESTINAL DISORDERS","GASTROINTESTINAL DISORDERS",null,"MILD","N","N","N","N","N","N","N","N","POSSIBLE","","RECOVERED/RESOLVED",11,"Y","","","","","","","",""],[143,"CDISCPILOT01","701","01-701-1275","Xanomeline High Dose",81,61,"<65",1,"AMERICAN INDIAN OR ALASKA NATIVE",6,"M","Y",19761,19874,19778,"",18,19886,126,109,"DAY","ERYTHEMA","ERYTHEMA",null,"ERYTHEMA",null,"HLT_0284",null,"HLGT_0192",null,"SKIN AND SUBCUTANEOUS TISSUE DISORDERS","SKIN AND SUBCUTANEOUS TISSUE DISORDERS",null,"MILD","N","N","N","N","N","N","N","N","POSSIBLE","","RECOVERED/RESOLVED",12,"Y","","","","","","","DERMATOLOGIC EVENTS",""],[144,"CDISCPILOT01","701","01-701-1275","Xanomeline High Dose",81,61,"<65",1,"AMERICAN INDIAN OR ALASKA NATIVE",6,"M","Y",19761,19874,19778,"",18,19877,117,100,"DAY","SALIVARY HYPERSECRETION","HYPERSALIVATION",null,"SALIVARY HYPERSECRETION",null,"HLT_0374",null,"HLGT_0488",null,"GASTROINTESTINAL DISORDERS","GASTROINTESTINAL DISORDERS",null,"MILD","N","N","N","N","N","N","N","N","POSSIBLE","","RECOVERED/RESOLVED",13,"Y","","","","","","","",""],[145,"CDISCPILOT01","701","01-701-1275","Xanomeline High Dose",81,61,"<65",1,"AMERICAN INDIAN OR ALASKA NATIVE",6,"M","Y",19761,19874,19778,"",18,19877,117,100,"DAY","PAROSMIA","STRANGE SMELL SENSATION",null,"PAROSMIA",null,"HLT_0258",null,"HLGT_0471",null,"NERVOUS SYSTEM DISORDERS","NERVOUS SYSTEM DISORDERS",null,"MILD","N","N","N","N","N","N","N","N","POSSIBLE","","RECOVERED/RESOLVED",14,"Y","","","","","","","",""],[146,"CDISCPILOT01","701","01-701-1275","Xanomeline High Dose",81,61,"<65",1,"AMERICAN INDIAN OR ALASKA NATIVE",6,"M","Y",19761,19874,19778,"",18,19886,126,109,"DAY","PRURITUS","ITCHING",null,"PRURITUS",null,"HLT_0778",null,"HLGT_0695",null,"SKIN AND SUBCUTANEOUS TISSUE DISORDERS","SKIN AND SUBCUTANEOUS TISSUE DISORDERS",null,"MILD","N","N","N","N","N","N","N","N","POSSIBLE","","RECOVERED/RESOLVED",15,"Y","","","","","","","DERMATOLOGIC EVENTS",""],[147,"CDISCPILOT01","701","01-701-1287","Xanomeline High Dose",81,56,"<65",1,"WHITE",1,"F","Y",19748,19930,19749,"",2,null,null,null,"","SALIVARY HYPERSECRETION","INCREASED SALIVATION",null,"SALIVARY HYPERSECRETION",null,"HLT_0374",null,"HLGT_0488",null,"GASTROINTESTINAL DISORDERS","GASTROINTESTINAL DISORDERS",null,"MILD","N","N","N","N","N","N","N","N","NONE","","NOT RECOVERED/NOT RESOLVED",1,"Y","Y","Y","Y","","","","",""],[148,"CDISCPILOT01","701","01-701-1287","Xanomeline High Dose",81,56,"<65",1,"WHITE",1,"F","Y",19748,19930,19776,"",29,null,null,null,"","APPLICATION SITE PRURITUS","APPLICATION SITE ITCHING",null,"APPLICATION SITE PRURITUS",null,"HLT_0317",null,"HLGT_0338",null,"GENERAL DISORDERS AND ADMINISTRATION SITE CONDITIONS","GENERAL DISORDERS AND ADMINISTRATION SITE CONDITIONS",null,"MILD","N","N","N","N","N","N","N","N","POSSIBLE","","NOT RECOVERED/NOT RESOLVED",2,"Y","","Y","Y","","","","DERMATOLOGIC EVENTS","Y"],[149,"CDISCPILOT01","701","01-701-1287","Xanomeline High Dose",81,56,"<65",1,"WHITE",1,"F","Y",19748,19930,19791,"",44,null,null,null,"","APPLICATION SITE ERYTHEMA","APPLICATION SITE REDNESS",null,"APPLICATION SITE ERYTHEMA",null,"HLT_0617",null,"HLGT_0152",null,"GENERAL DISORDERS AND ADMINISTRATION SITE CONDITIONS","GENERAL DISORDERS AND ADMINISTRATION SITE CONDITIONS",null,"MILD","N","N","N","N","N","N","N","N","PROBABLE","","NOT RECOVERED/NOT RESOLVED",3,"Y","","","Y","","","","DERMATOLOGIC EVENTS",""],[150,"CDISCPILOT01","701","01-701-1287","Xanomeline High Dose",81,56,"<65",1,"WHITE",1,"F","Y",19748,19930,19913,"",166,19916,169,4,"DAY","RHINORRHOEA","RUNNY NOSE",null,"RHINORRHOEA",null,"HLT_0635",null,"HLGT_0460",null,"RESPIRATORY, THORACIC AND MEDIASTINAL DISORDERS","RESPIRATORY, THORACIC AND MEDIASTINAL DISORDERS",null,"MILD","N","N","N","N","N","N","N","N","NONE","","NOT RECOVERED/NOT RESOLVED",4,"Y","","Y","Y","","","","",""],[151,"CDISCPILOT01","701","01-701-1287","Xanomeline High Dose",81,56,"<65",1,"WHITE",1,"F","Y",19748,19930,19913,"",166,19916,169,4,"DAY","RHINORRHOEA","RUNNY NOSE",null,"RHINORRHOEA",null,"HLT_0635",null,"HLGT_0460",null,"RESPIRATORY, THORACIC AND MEDIASTINAL DISORDERS","RESPIRATORY, THORACIC AND MEDIASTINAL DISORDERS",null,"MILD","N","N","N","N","N","N","N","N","NONE","","RECOVERED/RESOLVED",5,"Y","","","","","","","",""],[152,"CDISCPILOT01","701","01-701-1294","Xanomeline Low Dose",54,67,"65-80",2,"WHITE",1,"M","Y",19441,19523,19439,"",-2,19440,-1,2,"DAY","APPLICATION SITE PRURITUS","APPLICATION SITE ITCHING",null,"APPLICATION SITE PRURITUS",null,"HLT_0317",null,"HLGT_0338",null,"GENERAL DISORDERS AND ADMINISTRATION SITE CONDITIONS","GENERAL DISORDERS AND ADMINISTRATION SITE CONDITIONS",null,"MODERATE","N","N","N","N","N","N","N","N","NONE","","RECOVERED/RESOLVED",1,"","","","","","","","DERMATOLOGIC EVENTS",""],[153,"CDISCPILOT01","701","01-701-1294","Xanomeline Low Dose",54,67,"65-80",2,"WHITE",1,"M","Y",19441,19523,19497,"",57,null,null,null,"","APPLICATION SITE PRURITUS","APPLICATION SITE ITCHING",null,"APPLICATION SITE PRURITUS",null,"HLT_0317",null,"HLGT_0338",null,"GENERAL DISORDERS AND ADMINISTRATION SITE CONDITIONS","GENERAL DISORDERS AND ADMINISTRATION SITE CONDITIONS",null,"MILD","N","N","N","N","N","N","N","N","POSSIBLE","","NOT RECOVERED/NOT RESOLVED",2,"Y","Y","Y","Y","","","","DERMATOLOGIC EVENTS","Y"],[154,"CDISCPILOT01","701","01-701-1294","Xanomeline Low Dose",54,67,"65-80",2,"WHITE",1,"M","Y",19441,19523,19497,"",57,null,null,null,"","APPLICATION SITE ERYTHEMA","APPLICATION SITE REDNESS",null,"APPLICATION SITE ERYTHEMA",null,"HLT_0617",null,"HLGT_0152",null,"GENERAL DISORDERS AND ADMINISTRATION SITE CONDITIONS","GENERAL DISORDERS AND ADMINISTRATION SITE CONDITIONS",null,"MILD","N","N","N","N","N","N","N","N","PROBABLE","","NOT RECOVERED/NOT RESOLVED",3,"Y","","","Y","","","","DERMATOLOGIC EVENTS",""],[155,"CDISCPILOT01","701","01-701-1294","Xanomeline Low Dose",54,67,"65-80",2,"WHITE",1,"M","Y",19441,19523,19497,"",57,null,null,null,"","APPLICATION SITE PRURITUS","APPLICATION SITE ITCHING",null,"APPLICATION SITE PRURITUS",null,"HLT_0317",null,"HLGT_0338",null,"GENERAL DISORDERS AND ADMINISTRATION SITE CONDITIONS","GENERAL DISORDERS AND ADMINISTRATION SITE CONDITIONS",null,"MODERATE","N","N","N","N","N","N","N","N","POSSIBLE","","NOT RECOVERED/NOT RESOLVED",4,"Y","","","","","","","DERMATOLOGIC EVENTS",""],[156,"CDISCPILOT01","701","01-701-1294","Xanomeline Low Dose",54,67,"65-80",2,"WHITE",1,"M","Y",19441,19523,19497,"",57,null,null,null,"","APPLICATION SITE ERYTHEMA","APPLICATION SITE REDNESS",null,"APPLICATION SITE ERYTHEMA",null,"HLT_0617",null,"HLGT_0152",null,"GENERAL DISORDERS AND ADMINISTRATION SITE CONDITIONS","GENERAL DISORDERS AND ADMINISTRATION SITE CONDITIONS",null,"MODERATE","N","N","N","N","N","N","N","N","PROBABLE","","NOT RECOVERED/NOT RESOLVED",5,"Y","","","","","","","DERMATOLOGIC EVENTS",""],[157,"CDISCPILOT01","701","01-701-1294","Xanomeline Low Dose",54,67,"65-80",2,"WHITE",1,"M","Y",19441,19523,19519,"",79,null,null,null,"","RASH ERYTHEMATOUS","ERYTHEMATOUS RASH",null,"RASH ERYTHEMATOUS",null,"HLT_0336",null,"HLGT_0701",null,"SKIN AND SUBCUTANEOUS TISSUE DISORDERS","SKIN AND SUBCUTANEOUS TISSUE DISORDERS",null,"MODERATE","N","N","N","N","N","N","N","N","PROBABLE","","NOT RECOVERED/NOT RESOLVED",6,"Y","","Y","Y","","","","DERMATOLOGIC EVENTS",""],[158,"CDISCPILOT01","701","01-701-1302","Xanomeline High Dose",81,61,"<65",1,"WHITE",1,"M","Y",19599,19667,19600,"",2,null,null,null,"","APPLICATION SITE PERSPIRATION","APPLICATION SITE PERSPIRATION",null,"APPLICATION SITE PERSPIRATION",null,"HLT_0283",null,"HLGT_0403",null,"GENERAL DISORDERS AND ADMINISTRATION SITE CONDITIONS","GENERAL DISORDERS AND ADMINISTRATION SITE CONDITIONS",null,"MILD","N","N","N","N","N","N","N","N","POSSIBLE","","NOT RECOVERED/NOT RESOLVED",1,"Y","Y","Y","Y","","","","DERMATOLOGIC EVENTS","Y"],[159,"CDISCPILOT01","701","01-701-1302","Xanomeline High Dose",81,61,"<65",1,"WHITE",1,"M","Y",19599,19667,19600,"",2,null,null,null,"","HYPERHIDROSIS","PERSPIRATION EXCESSIVE",null,"HYPERHIDROSIS",null,"HLT_0587",null,"HLGT_0005",null,"SKIN AND SUBCUTANEOUS TISSUE DISORDERS","SKIN AND SUBCUTANEOUS TISSUE DISORDERS",null,"MILD","N","N","N","N","N","N","N","N","POSSIBLE","","NOT RECOVERED/NOT RESOLVED",2,"Y","","Y","Y","","","","",""],[160,"CDISCPILOT01","701","01-701-1302","Xanomeline High Dose",81,61,"<65",1,"WHITE",1,"M","Y",19599,19667,19600,"",2,null,null,null,"","STOMACH DISCOMFORT","STOMACH UPSET",null,"STOMACH DISCOMFORT",null,"HLT_0065",null,"HLGT_0183",null,"GASTROINTESTINAL DISORDERS","GASTROINTESTINAL DISORDERS",null,"MILD","N","N","N","N","N","N","N","N","POSSIBLE","","NOT RECOVERED/NOT RESOLVED",3,"Y","","Y","Y","","","","",""],[161,"CDISCPILOT01","701","01-701-1302","Xanomeline High Dose",81,61,"<65",1,"WHITE",1,"M","Y",19599,19667,19601,"",3,null,null,null,"","PAIN","STINGING",null,"PAIN",null,"HLT_0314",null,"HLGT_0478",null,"GENERAL DISORDERS AND ADMINISTRATION SITE CONDITIONS","GENERAL DISORDERS AND ADMINISTRATION SITE CONDITIONS",null,"MILD","N","N","N","N","N","N","N","N","POSSIBLE","","NOT RECOVERED/NOT RESOLVED",4,"Y","","","Y","","","","",""],[162,"CDISCPILOT01","701","01-701-1302","Xanomeline High Dose",81,61,"<65",1,"WHITE",1,"M","Y",19599,19667,19602,"",4,null,null,null,"","NASAL CONGESTION","NASAL CONGESTION",null,"NASAL CONGESTION",null,"HLT_0118",null,"HLGT_0549",null,"RESPIRATORY, THORACIC AND MEDIASTINAL DISORDERS","RESPIRATORY, THORACIC AND MEDIASTINAL DISORDERS",null,"MILD","N","N","N","N","N","N","N","N","NONE","","NOT RECOVERED/NOT RESOLVED",5,"Y","","Y","Y","","","","",""],[163,"CDISCPILOT01","701","01-701-1302","Xanomeline High Dose",81,61,"<65",1,"WHITE",1,"M","Y",19599,19667,19603,"",5,null,null,null,"","PHARYNGOLARYNGEAL PAIN","SORE THROAT",null,"PHARYNGOLARYNGEAL PAIN",null,"HLT_0130",null,"HLGT_0402",null,"RESPIRATORY, THORACIC AND MEDIASTINAL DISORDERS","RESPIRATORY, THORACIC AND MEDIASTINAL DISORDERS",null,"MILD","N","N","N","N","N","N","N","N","NONE","","NOT RECOVERED/NOT RESOLVED",6,"Y","","","Y","","","","",""],[164,"CDISCPILOT01","701","01-701-1302","Xanomeline High Dose",81,61,"<65",1,"WHITE",1,"M","Y",19599,19667,19603,"",5,null,null,null,"","PRODUCTIVE COUGH","PRODUCTIVE COUGH",null,"PRODUCTIVE COUGH",null,"HLT_0545",null,"HLGT_0681",null,"RESPIRATORY, THORACIC AND MEDIASTINAL DISORDERS","RESPIRATORY, THORACIC AND MEDIASTINAL DISORDERS",null,"MILD","N","N","N","N","N","N","N","N","NONE","","NOT RECOVERED/NOT RESOLVED",7,"Y","","","Y","","","","",""],[165,"CDISCPILOT01","701","01-701-1302","Xanomeline High Dose",81,61,"<65",1,"WHITE",1,"M","Y",19599,19667,19603,"",5,null,null,null,"","MALAISE","MALAISE",null,"MALAISE",null,"HLT_0456",null,"HLGT_0178",null,"GENERAL DISORDERS AND ADMINISTRATION SITE CONDITIONS","GENERAL DISORDERS AND ADMINISTRATION SITE CONDITIONS",null,"MILD","N","N","N","N","N","N","N","N","REMOTE","","NOT RECOVERED/NOT RESOLVED",8,"Y","","","Y","","","","",""],[166,"CDISCPILOT01","701","01-701-1302","Xanomeline High Dose",81,61,"<65",1,"WHITE",1,"M","Y",19599,19667,19603,"",5,19604,6,2,"DAY","DIZZINESS","DIZZY",null,"DIZZINESS",null,"HLT_0619",null,"HLGT_0751",null,"NERVOUS SYSTEM DISORDERS","NERVOUS SYSTEM DISORDERS",null,"MODERATE","N","N","N","N","N","N","N","N","REMOTE","","RECOVERED/RESOLVED",9,"Y","","Y","Y","","","","",""],[167,"CDISCPILOT01","701","01-701-1302","Xanomeline High Dose",81,61,"<65",1,"WHITE",1,"M","Y",19599,19667,19603,"",5,null,null,null,"","MYALGIA","MYALGIA",null,"MYALGIA",null,"HLT_0700",null,"HLGT_0121",null,"MUSCULOSKELETAL AND CONNECTIVE TISSUE DISORDERS","MUSCULOSKELETAL AND CONNECTIVE TISSUE DISORDERS",null,"MILD","N","N","N","N","N","N","N","N","POSSIBLE","","NOT RECOVERED/NOT RESOLVED",10,"Y","","Y","Y","","","","",""],[168,"CDISCPILOT01","701","01-701-1302","Xanomeline High Dose",81,61,"<65",1,"WHITE",1,"M","Y",19599,19667,19605,"",7,null,null,null,"","DIZZINESS","LIGHTHEADEDNESS",null,"DIZZINESS",null,"HLT_0619",null,"HLGT_0751",null,"NERVOUS SYSTEM DISORDERS","NERVOUS SYSTEM DISORDERS",null,"MILD","N","N","N","N","N","N","N","N","POSSIBLE","","NOT RECOVERED/NOT RESOLVED",11,"Y","","","","","","","",""],[169,"CDISCPILOT01","701","01-701-1302","Xanomeline High Dose",81,61,"<65",1,"WHITE",1,"M","Y",19599,19667,19606,"",8,19639,41,34,"DAY","CONTUSION","BRUISE",null,"CONTUSION",null,"HLT_0713",null,"HLGT_0381",null,"INJURY, POISONING AND PROCEDURAL COMPLICATIONS","INJURY, POISONING AND PROCEDURAL COMPLICATIONS",null,"MILD","N","N","N","N","N","N","N","N","REMOTE","","NOT RECOVERED/NOT RESOLVED",12,"Y","","Y","Y","","","","",""],[170,"CDISCPILOT01","701","01-701-1302","Xanomeline High Dose",81,61,"<65",1,"WHITE",1,"M","Y",19599,19667,19616,"",18,null,null,null,"","HEADACHE","HEADACHE",null,"HEADACHE",null,"HLT_0064",null,"HLGT_0344",null,"NERVOUS SYSTEM DISORDERS","NERVOUS SYSTEM DISORDERS",null,"MILD","N","N","N","N","N","N","N","N","NONE","","NOT RECOVERED/NOT RESOLVED",13,"Y","","","Y","","","","",""],[171,"CDISCPILOT01","701","01-701-1302","Xanomeline High Dose",81,61,"<65",1,"WHITE",1,"M","Y",19599,19667,19631,"",33,null,null,null,"","EPISTAXIS","NOSE BLEED",null,"EPISTAXIS",null,"HLT_0386",null,"HLGT_0577",null,"RESPIRATORY, THORACIC AND MEDIASTINAL DISORDERS","RESPIRATORY, THORACIC AND MEDIASTINAL DISORDERS",null,"MILD","N","N","N","N","N","N","N","N","REMOTE","","NOT RECOVERED/NOT RESOLVED",14,"Y","","","Y","","","","",""],[172,"CDISCPILOT01","701","01-701-1302","Xanomeline High Dose",81,61,"<65",1,"WHITE",1,"M","Y",19599,19667,19606,"",8,19639,41,34,"DAY","CONTUSION","BRUISE",null,"CONTUSION",null,"HLT_0713",null,"HLGT_0381",null,"INJURY, POISONING AND PROCEDURAL COMPLICATIONS","INJURY, POISONING AND PROCEDURAL COMPLICATIONS",null,"MILD","N","N","N","N","N","N","N","N","REMOTE","","RECOVERED/RESOLVED",15,"Y","","","","","","","",""],[173,"CDISCPILOT01","701","01-701-1302","Xanomeline High Dose",81,61,"<65",1,"WHITE",1,"M","Y",19599,19667,19646,"",48,null,null,null,"","APPLICATION SITE ERYTHEMA","APPLICATION SITE REDNESS",null,"APPLICATION SITE ERYTHEMA",null,"HLT_0617",null,"HLGT_0152",null,"GENERAL DISORDERS AND ADMINISTRATION SITE CONDITIONS","GENERAL DISORDERS AND ADMINISTRATION SITE CONDITIONS",null,"MILD","N","N","N","N","N","N","N","N","PROBABLE","","NOT RECOVERED/NOT RESOLVED",16,"Y","","","Y","","","","DERMATOLOGIC EVENTS",""],[174,"CDISCPILOT01","701","01-701-1302","Xanomeline High Dose",81,61,"<65",1,"WHITE",1,"M","Y",19599,19667,19646,"",48,null,null,null,"","APPLICATION SITE PRURITUS","APPLICATION SITE ITCHING",null,"APPLICATION SITE PRURITUS",null,"HLT_0317",null,"HLGT_0338",null,"GENERAL DISORDERS AND ADMINISTRATION SITE CONDITIONS","GENERAL DISORDERS AND ADMINISTRATION SITE CONDITIONS",null,"MILD","N","N","N","N","N","N","N","N","PROBABLE","","NOT RECOVERED/NOT RESOLVED",17,"Y","","","Y","","","","DERMATOLOGIC EVENTS",""],[175,"CDISCPILOT01","701","01-701-1302","Xanomeline High Dose",81,61,"<65",1,"WHITE",1,"M","Y",19599,19667,19603,"",5,null,null,null,"","MALAISE","MALAISE",null,"MALAISE",null,"HLT_0456",null,"HLGT_0178",null,"GENERAL DISORDERS AND ADMINISTRATION SITE CONDITIONS","GENERAL DISORDERS AND ADMINISTRATION SITE CONDITIONS",null,"MODERATE","N","N","N","N","N","N","N","N","REMOTE","","NOT RECOVERED/NOT RESOLVED",18,"Y","","","","","","","",""],[176,"CDISCPILOT01","701","01-701-1302","Xanomeline High Dose",81,61,"<65",1,"WHITE",1,"M","Y",19599,19667,19654,"",56,null,null,null,"","RESPIRATORY TRACT CONGESTION","RESPIRATORY TRACT CONGESTION",null,"RESPIRATORY TRACT CONGESTION",null,"HLT_0330",null,"HLGT_0424",null,"RESPIRATORY, THORACIC AND MEDIASTINAL DISORDERS","RESPIRATORY, THORACIC AND MEDIASTINAL DISORDERS",null,"MILD","N","N","N","N","N","N","N","N","NONE","","NOT RECOVERED/NOT RESOLVED",19,"Y","","","Y","","","","",""],[177,"CDISCPILOT01","701","01-701-1302","Xanomeline High Dose",81,61,"<65",1,"WHITE",1,"M","Y",19599,19667,19654,"",56,null,null,null,"","RHINITIS","CORYZA",null,"RHINITIS",null,"HLT_0239",null,"HLGT_0322",null,"INFECTIONS AND INFESTATIONS","INFECTIONS AND INFESTATIONS",null,"MILD","N","N","N","N","N","N","N","N","NONE","","NOT RECOVERED/NOT RESOLVED",20,"Y","","Y","Y","","","","",""],[178,"CDISCPILOT01","701","01-701-1302","Xanomeline High Dose",81,61,"<65",1,"WHITE",1,"M","Y",19599,19667,19655,"",57,null,null,null,"","FEELING ABNORMAL","FOGGY FEELING IN HEAD",null,"FEELING ABNORMAL",null,"HLT_0524",null,"HLGT_0749",null,"GENERAL DISORDERS AND ADMINISTRATION SITE CONDITIONS","GENERAL DISORDERS AND ADMINISTRATION SITE CONDITIONS",null,"MILD","N","N","N","N","N","N","N","N","POSSIBLE","","NOT RECOVERED/NOT RESOLVED",21,"Y","","","Y","","","","",""],[179,"CDISCPILOT01","701","01-701-1302","Xanomeline High Dose",81,61,"<65",1,"WHITE",1,"M","Y",19599,19667,19655,"",57,null,null,null,"","LISTLESS","LISTLESSNESS",null,"LISTLESS",null,"HLT_0657",null,"HLGT_0124",null,"PSYCHIATRIC DISORDERS","PSYCHIATRIC DISORDERS",null,"MILD","N","N","N","N","N","N","N","N","POSSIBLE","","NOT RECOVERED/NOT RESOLVED",22,"Y","","Y","Y","","","","",""],[180,"CDISCPILOT01","701","01-701-1302","Xanomeline High Dose",81,61,"<65",1,"WHITE",1,"M","Y",19599,19667,19655,"",57,null,null,null,"","LIBIDO DECREASED","LIBIDO DECREASED",null,"LIBIDO DECREASED",null,"HLT_0338",null,"HLGT_0496",null,"PSYCHIATRIC DISORDERS","PSYCHIATRIC DISORDERS",null,"MILD","N","N","N","N","N","N","N","N","POSSIBLE","","NOT RECOVERED/NOT RESOLVED",23,"Y","","","Y","","","","",""],[181,"CDISCPILOT01","701","01-701-1317","Xanomeline Low Dose",54,68,"65-80",2,"WHITE",1,"M","Y",19865,20047,19856,"",-9,null,null,null,"","ONYCHOMYCOSIS","ONYCHOMYCOSIS",null,"ONYCHOMYCOSIS",null,"HLT_0275",null,"HLGT_0243",null,"INFECTIONS AND INFESTATIONS","INFECTIONS AND INFESTATIONS",null,"MILD","N","N","N","N","N","N","N","N","NONE","","NOT RECOVERED/NOT RESOLVED",1,"","","","","","","","",""],[182,"CDISCPILOT01","701","01-701-1317","Xanomeline Low Dose",54,68,"65-80",2,"WHITE",1,"M","Y",19865,20047,19856,"",-9,null,null,null,"","CYST","CYST",null,"CYST",null,"HLT_0763",null,"HLGT_0341",null,"GENERAL DISORDERS AND ADMINISTRATION SITE CONDITIONS","GENERAL DISORDERS AND ADMINISTRATION SITE CONDITIONS",null,"MILD","N","N","N","N","N","N","N","N","NONE","","NOT RECOVERED/NOT RESOLVED",2,"","","","","","","","",""],[183,"CDISCPILOT01","701","01-701-1317","Xanomeline Low Dose",54,68,"65-80",2,"WHITE",1,"M","Y",19865,20047,19897,"",33,null,null,null,"","APPLICATION SITE ERYTHEMA","APPLICATION SITE REDNESS",null,"APPLICATION SITE ERYTHEMA",null,"HLT_0617",null,"HLGT_0152",null,"GENERAL DISORDERS AND ADMINISTRATION SITE CONDITIONS","GENERAL DISORDERS AND ADMINISTRATION SITE CONDITIONS",null,"MILD","N","N","N","N","N","N","N","N","POSSIBLE","","NOT RECOVERED/NOT RESOLVED",3,"Y","Y","Y","Y","","","","DERMATOLOGIC EVENTS","Y"],[184,"CDISCPILOT01","701","01-701-1317","Xanomeline Low Dose",54,68,"65-80",2,"WHITE",1,"M","Y",19865,20047,19897,"",33,null,null,null,"","APPLICATION SITE PRURITUS","APPLICATION SITE ITCHING",null,"APPLICATION SITE PRURITUS",null,"HLT_0317",null,"HLGT_0338",null,"GENERAL DISORDERS AND ADMINISTRATION SITE CONDITIONS","GENERAL DISORDERS AND ADMINISTRATION SITE CONDITIONS",null,"MILD","N","N","N","N","N","N","N","N","POSSIBLE","","NOT RECOVERED/NOT RESOLVED",4,"Y","","","Y","","","","DERMATOLOGIC EVENTS",""],[185,"CDISCPILOT01","701","01-701-1317","Xanomeline Low Dose",54,68,"65-80",2,"WHITE",1,"M","Y",19865,20047,19897,"",33,null,null,null,"","APPLICATION SITE URTICARIA","APPLICATION SITE URTICARIA",null,"APPLICATION SITE URTICARIA",null,"HLT_0196",null,"HLGT_0233",null,"GENERAL DISORDERS AND ADMINISTRATION SITE CONDITIONS","GENERAL DISORDERS AND ADMINISTRATION SITE CONDITIONS",null,"MILD","N","N","N","N","N","N","N","N","POSSIBLE","","NOT RECOVERED/NOT RESOLVED",5,"Y","","","Y","","","","DERMATOLOGIC EVENTS",""],[186,"CDISCPILOT01","701","01-701-1317","Xanomeline Low Dose",54,68,"65-80",2,"WHITE",1,"M","Y",19865,20047,19908,"",44,null,null,null,"","DEPRESSED MOOD","DEPRESSED MOOD",null,"DEPRESSED MOOD",null,"HLT_0784",null,"HLGT_0122",null,"PSYCHIATRIC DISORDERS","PSYCHIATRIC DISORDERS",null,"MILD","N","N","N","N","N","N","N","N","POSSIBLE","","NOT RECOVERED/NOT RESOLVED",6,"Y","","Y","Y","","","","",""],[187,"CDISCPILOT01","701","01-701-1317","Xanomeline Low Dose",54,68,"65-80",2,"WHITE",1,"M","Y",19865,20047,19908,"",44,null,null,null,"","DEPRESSED MOOD","DEPRESSED MOOD",null,"DEPRESSED MOOD",null,"HLT_0784",null,"HLGT_0122",null,"PSYCHIATRIC DISORDERS","PSYCHIATRIC DISORDERS",null,"MODERATE","N","N","N","N","N","N","N","N","POSSIBLE","","NOT RECOVERED/NOT RESOLVED",7,"Y","","","","","","","",""],[188,"CDISCPILOT01","701","01-701-1317","Xanomeline Low Dose",54,68,"65-80",2,"WHITE",1,"M","Y",19865,20047,19978,"",114,null,null,null,"","FATIGUE","TIREDNESS",null,"FATIGUE",null,"HLT_0043",null,"HLGT_0181",null,"GENERAL DISORDERS AND ADMINISTRATION SITE CONDITIONS","GENERAL DISORDERS AND ADMINISTRATION SITE CONDITIONS",null,"MILD","N","N","N","N","N","N","N","N","REMOTE","","NOT RECOVERED/NOT RESOLVED",8,"Y","","","Y","","","","",""],[189,"CDISCPILOT01","701","01-701-1317","Xanomeline Low Dose",54,68,"65-80",2,"WHITE",1,"M","Y",19865,20047,20030,"",166,null,null,null,"","DYSPHONIA","HOARSENESS",null,"DYSPHONIA",null,"HLT_0073",null,"HLGT_0274",null,"RESPIRATORY, THORACIC AND MEDIASTINAL DISORDERS","RESPIRATORY, THORACIC AND MEDIASTINAL DISORDERS",null,"MILD","N","N","N","N","N","N","N","N","REMOTE","","NOT RECOVERED/NOT RESOLVED",9,"Y","","Y","Y","","","","",""],[190,"CDISCPILOT01","701","01-701-1324","Xanomeline Low Dose",54,79,"65-80",2,"WHITE",1,"M","Y",19268,19450,19288,"",21,null,null,null,"","APPLICATION SITE ERYTHEMA","APPLICATION SITE ERYTHEMA",null,"APPLICATION SITE ERYTHEMA",null,"HLT_0617",null,"HLGT_0152",null,"GENERAL DISORDERS AND ADMINISTRATION SITE CONDITIONS","GENERAL DISORDERS AND ADMINISTRATION SITE CONDITIONS",null,"MILD","N","N","N","N","N","N","N","N","PROBABLE","","NOT RECOVERED/NOT RESOLVED",1,"Y","Y","Y","Y","","","","DERMATOLOGIC EVENTS","Y"],[191,"CDISCPILOT01","701","01-701-1324","Xanomeline Low Dose",54,79,"65-80",2,"WHITE",1,"M","Y",19268,19450,19329,"",62,null,null,null,"","APPLICATION SITE PRURITUS","APPLICATION SITE ITCHING",null,"APPLICATION SITE PRURITUS",null,"HLT_0317",null,"HLGT_0338",null,"GENERAL DISORDERS AND ADMINISTRATION SITE CONDITIONS","GENERAL DISORDERS AND ADMINISTRATION SITE CONDITIONS",null,"MILD","N","N","N","N","N","N","N","N","PROBABLE","","NOT RECOVERED/NOT RESOLVED",2,"Y","","","Y","","","","DERMATOLOGIC EVENTS",""],[192,"CDISCPILOT01","701","01-701-1324","Xanomeline Low Dose",54,79,"65-80",2,"WHITE",1,"M","Y",19268,19450,19352,"",85,19374,107,23,"DAY","APPLICATION SITE VESICLES","APPLICATION SITE BLISTER",null,"APPLICATION SITE VESICLES",null,"HLT_0180",null,"HLGT_0576",null,"GENERAL DISORDERS AND ADMINISTRATION SITE CONDITIONS","GENERAL DISORDERS AND ADMINISTRATION SITE CONDITIONS",null,"MILD","N","N","N","N","N","N","N","N","PROBABLE","","NOT RECOVERED/NOT RESOLVED",3,"Y","","","Y","","","","DERMATOLOGIC EVENTS",""],[193,"CDISCPILOT01","701","01-701-1324","Xanomeline Low Dose",54,79,"65-80",2,"WHITE",1,"M","Y",19268,19450,19352,"",85,19374,107,23,"DAY","APPLICATION SITE VESICLES","APPLICATION SITE BLISTER",null,"APPLICATION SITE VESICLES",null,"HLT_0180",null,"HLGT_0576",null,"GENERAL DISORDERS AND ADMINISTRATION SITE CONDITIONS","GENERAL DISORDERS AND ADMINISTRATION SITE CONDITIONS",null,"MILD","N","N","N","N","N","N","N","N","PROBABLE","","RECOVERED/RESOLVED",4,"Y","","","","","","","DERMATOLOGIC EVENTS",""],[194,"CDISCPILOT01","701","01-701-1341","Xanomeline Low Dose",54,51,"<65",1,"WHITE",1,"M","Y",19363,19384,19377,"",15,null,null,null,"","APPLICATION SITE PRURITUS","APPLICATION SITE ITCHING",null,"APPLICATION SITE PRURITUS",null,"HLT_0317",null,"HLGT_0338",null,"GENERAL DISORDERS AND ADMINISTRATION SITE CONDITIONS","GENERAL DISORDERS AND ADMINISTRATION SITE CONDITIONS",null,"MODERATE","N","N","N","N","N","N","N","N","PROBABLE","","NOT RECOVERED/NOT RESOLVED",1,"Y","Y","Y","Y","","","","DERMATOLOGIC EVENTS","Y"],[195,"CDISCPILOT01","701","01-701-1341","Xanomeline Low Dose",54,51,"<65",1,"WHITE",1,"M","Y",19363,19384,19377,"",15,null,null,null,"","APPLICATION SITE ERYTHEMA","APPLICATION SITE REDNESS",null,"APPLICATION SITE ERYTHEMA",null,"HLT_0617",null,"HLGT_0152",null,"GENERAL DISORDERS AND ADMINISTRATION SITE CONDITIONS","GENERAL DISORDERS AND ADMINISTRATION SITE CONDITIONS",null,"MODERATE","N","N","N","N","N","N","N","N","PROBABLE","","NOT RECOVERED/NOT RESOLVED",2,"Y","","","Y","","","","DERMATOLOGIC EVENTS",""],[196,"CDISCPILOT01","701","01-701-1341","Xanomeline Low Dose",54,51,"<65",1,"WHITE",1,"M","Y",19363,19384,19384,"",22,19388,26,5,"DAY","APPLICATION SITE PRURITUS","APPLICATION SITE ITCHING",null,"APPLICATION SITE PRURITUS",null,"HLT_0317",null,"HLGT_0338",null,"GENERAL DISORDERS AND ADMINISTRATION SITE CONDITIONS","GENERAL DISORDERS AND ADMINISTRATION SITE CONDITIONS",null,"MODERATE","N","N","N","N","N","N","N","N","PROBABLE","","RECOVERED/RESOLVED",3,"Y","","","","","","","DERMATOLOGIC EVENTS",""],[197,"CDISCPILOT01","701","01-701-1341","Xanomeline Low Dose",54,51,"<65",1,"WHITE",1,"M","Y",19363,19384,19384,"",22,null,null,null,"","APPLICATION SITE ERYTHEMA","APPLICATION SITE REDNESS",null,"APPLICATION SITE ERYTHEMA",null,"HLT_0617",null,"HLGT_0152",null,"GENERAL DISORDERS AND ADMINISTRATION SITE CONDITIONS","GENERAL DISORDERS AND ADMINISTRATION SITE CONDITIONS",null,"MODERATE","N","N","N","N","N","N","N","N","PROBABLE","","NOT RECOVERED/NOT RESOLVED",4,"Y","","","","","","","DERMATOLOGIC EVENTS",""],[198,"CDISCPILOT01","701","01-701-1341","Xanomeline Low Dose",54,51,"<65",1,"WHITE",1,"M","Y",19363,19384,19384,"",22,19388,26,5,"DAY","APPLICATION SITE IRRITATION","APPLICATION SITE BURNING",null,"APPLICATION SITE IRRITATION",null,"HLT_0061",null,"HLGT_0346",null,"GENERAL DISORDERS AND ADMINISTRATION SITE CONDITIONS","GENERAL DISORDERS AND ADMINISTRATION SITE CONDITIONS",null,"MODERATE","N","N","N","N","N","N","N","N","PROBABLE","","RECOVERED/RESOLVED",5,"Y","","","Y","","","","DERMATOLOGIC EVENTS",""],[199,"CDISCPILOT01","701","01-701-1360","Xanomeline High Dose",81,67,"65-80",2,"WHITE",1,"M","Y",19570,19575,19572,"",3,null,null,null,"","APPLICATION SITE ERYTHEMA","APPLICATION SITE ERYTHEMA",null,"APPLICATION SITE ERYTHEMA",null,"HLT_0617",null,"HLGT_0152",null,"GENERAL DISORDERS AND ADMINISTRATION SITE CONDITIONS","GENERAL DISORDERS AND ADMINISTRATION SITE CONDITIONS",null,"MODERATE","N","N","N","N","N","N","N","N","PROBABLE","","NOT RECOVERED/NOT RESOLVED",1,"Y","Y","Y","Y","","","","DERMATOLOGIC EVENTS","Y"],[200,"CDISCPILOT01","701","01-701-1360","Xanomeline High Dose",81,67,"65-80",2,"WHITE",1,"M","Y",19570,19575,19572,"",3,null,null,null,"","APPLICATION SITE PRURITUS","APPLICATION SITE ITCHING",null,"APPLICATION SITE PRURITUS",null,"HLT_0317",null,"HLGT_0338",null,"GENERAL DISORDERS AND ADMINISTRATION SITE CONDITIONS","GENERAL DISORDERS AND ADMINISTRATION SITE CONDITIONS",null,"MODERATE","N","N","N","N","N","N","N","N","PROBABLE","","NOT RECOVERED/NOT RESOLVED",2,"Y","","","Y","","","","DERMATOLOGIC EVENTS",""],[201,"CDISCPILOT01","701","01-701-1360","Xanomeline High Dose",81,67,"65-80",2,"WHITE",1,"M","Y",19570,19575,19575,"",6,null,null,null,"","APPLICATION SITE VESICLES","APPLICATION SITE BLISTER",null,"APPLICATION SITE VESICLES",null,"HLT_0180",null,"HLGT_0576",null,"GENERAL DISORDERS AND ADMINISTRATION SITE CONDITIONS","GENERAL DISORDERS AND ADMINISTRATION SITE CONDITIONS",null,"MODERATE","N","N","N","N","N","N","N","N","PROBABLE","","NOT RECOVERED/NOT RESOLVED",3,"Y","","","Y","","","","DERMATOLOGIC EVENTS",""],[202,"CDISCPILOT01","701","01-701-1363","Placebo",0,81,">80",3,"BLACK OR AFRICAN AMERICAN",2,"F","Y",19508,19689,19523,"",16,19524,17,2,"DAY","NAUSEA","NAUSEA",null,"NAUSEA",null,"HLT_0742",null,"HLGT_0326",null,"GASTROINTESTINAL DISORDERS","GASTROINTESTINAL DISORDERS",null,"MILD","N","N","N","N","N","N","N","N","REMOTE","","RECOVERED/RESOLVED",1,"Y","Y","Y","Y","","","","",""],[203,"CDISCPILOT01","701","01-701-1363","Placebo",0,81,">80",3,"BLACK OR AFRICAN AMERICAN",2,"F","Y",19508,19689,null,"",null,null,null,null,"","HEADACHE","HEADACHE",null,"HEADACHE",null,"HLT_0064",null,"HLGT_0344",null,"NERVOUS SYSTEM DISORDERS","NERVOUS SYSTEM DISORDERS",null,"MODERATE","N","N","N","N","N","N","N","N","POSSIBLE","","NOT RECOVERED/NOT RESOLVED",2,"","","","","","","","",""],[204,"CDISCPILOT01","701","01-701-1363","Placebo",0,81,">80",3,"BLACK OR AFRICAN AMERICAN",2,"F","Y",19508,19689,19555,"",48,null,null,null,"","APPLICATION SITE PRURITUS","APPLICATION SITE ITCHING",null,"APPLICATION SITE PRURITUS",null,"HLT_0317",null,"HLGT_0338",null,"GENERAL DISORDERS AND ADMINISTRATION SITE CONDITIONS","GENERAL DISORDERS AND ADMINISTRATION SITE CONDITIONS",null,"MILD","N","N","N","N","N","N","N","N","PROBABLE","","NOT RECOVERED/NOT RESOLVED",3,"Y","","Y","Y","","","","DERMATOLOGIC EVENTS","Y"],[205,"CDISCPILOT01","701","01-701-1363","Placebo",0,81,">80",3,"BLACK OR AFRICAN AMERICAN",2,"F","Y",19508,19689,null,"",null,null,null,null,"","HEADACHE","HEADACHE",null,"HEADACHE",null,"HLT_0064",null,"HLGT_0344",null,"NERVOUS SYSTEM DISORDERS","NERVOUS SYSTEM DISORDERS",null,"MILD","N","N","N","N","N","N","N","N","POSSIBLE","","NOT RECOVERED/NOT RESOLVED",4,"","","","","","","","",""],[206,"CDISCPILOT01","701","01-701-1363","Placebo",0,81,">80",3,"BLACK OR AFRICAN AMERICAN",2,"F","Y",19508,19689,19644,"",137,19646,139,3,"DAY","BACK PAIN","BACKACHE",null,"BACK PAIN",null,"HLT_0115",null,"HLGT_0508",null,"MUSCULOSKELETAL AND CONNECTIVE TISSUE DISORDERS","MUSCULOSKELETAL AND CONNECTIVE TISSUE DISORDERS",null,"MILD","N","N","N","N","N","N","N","N","NONE","","NOT RECOVERED/NOT RESOLVED",5,"Y","","Y","Y","","","","",""],[207,"CDISCPILOT01","701","01-701-1363","Placebo",0,81,">80",3,"BLACK OR AFRICAN AMERICAN",2,"F","Y",19508,19689,19644,"",137,19646,139,3,"DAY","BACK PAIN","BACKACHE",null,"BACK PAIN",null,"HLT_0115",null,"HLGT_0508",null,"MUSCULOSKELETAL AND CONNECTIVE TISSUE DISORDERS","MUSCULOSKELETAL AND CONNECTIVE TISSUE DISORDERS",null,"MILD","N","N","N","N","N","N","N","N","NONE","","RECOVERED/RESOLVED",6,"Y","","","","","","","",""],[208,"CDISCPILOT01","701","01-701-1383","Xanomeline High Dose",81,72,"65-80",2,"WHITE",1,"F","Y",19393,19576,19396,"",4,19396,4,1,"DAY","APPLICATION SITE PRURITUS","APPLICATION SITE ITCHING",null,"APPLICATION SITE PRURITUS",null,"HLT_0317",null,"HLGT_0338",null,"GENERAL DISORDERS AND ADMINISTRATION SITE CONDITIONS","GENERAL DISORDERS AND ADMINISTRATION SITE CONDITIONS",null,"MILD","N","N","N","N","N","N","N","N","PROBABLE","","RECOVERED/RESOLVED",1,"Y","Y","Y","Y","","","","DERMATOLOGIC EVENTS","Y"],[209,"CDISCPILOT01","701","01-701-1383","Xanomeline High Dose",81,72,"65-80",2,"WHITE",1,"F","Y",19393,19576,19396,"",4,19396,4,1,"DAY","APPLICATION SITE PAIN","APPLICATION SITE PAIN",null,"APPLICATION SITE PAIN",null,"HLT_0342",null,"HLGT_0085",null,"GENERAL DISORDERS AND ADMINISTRATION SITE CONDITIONS","GENERAL DISORDERS AND ADMINISTRATION SITE CONDITIONS",null,"MILD","N","N","N","N","N","N","N","N","PROBABLE","","RECOVERED/RESOLVED",2,"Y","","","Y","","","","DERMATOLOGIC EVENTS",""],[210,"CDISCPILOT01","701","01-701-1383","Xanomeline High Dose",81,72,"65-80",2,"WHITE",1,"F","Y",19393,19576,19440,"",48,19443,51,4,"DAY","APPLICATION SITE ERYTHEMA","APPLICATION SITE ERYTHEMA",null,"APPLICATION SITE ERYTHEMA",null,"HLT_0617",null,"HLGT_0152",null,"GENERAL DISORDERS AND ADMINISTRATION SITE CONDITIONS","GENERAL DISORDERS AND ADMINISTRATION SITE CONDITIONS",null,"MILD","N","N","N","N","N","N","N","N","POSSIBLE","","RECOVERED/RESOLVED",3,"Y","","","Y","","","","DERMATOLOGIC EVENTS",""],[211,"CDISCPILOT01","701","01-701-1383","Xanomeline High Dose",81,72,"65-80",2,"WHITE",1,"F","Y",19393,19576,19440,"",48,null,null,null,"","APPLICATION SITE PRURITUS","APPLICATION SITE ITCHING",null,"APPLICATION SITE PRURITUS",null,"HLT_0317",null,"HLGT_0338",null,"GENERAL DISORDERS AND ADMINISTRATION SITE CONDITIONS","GENERAL DISORDERS AND ADMINISTRATION SITE CONDITIONS",null,"MILD","N","N","N","N","N","N","N","N","POSSIBLE","","NOT RECOVERED/NOT RESOLVED",4,"Y","","","","","","","DERMATOLOGIC EVENTS",""],[212,"CDISCPILOT01","701","01-701-1383","Xanomeline High Dose",81,72,"65-80",2,"WHITE",1,"F","Y",19393,19576,19460,"",68,null,null,null,"","APPLICATION SITE ERYTHEMA","APPLICATION SITE ERYTHEMA",null,"APPLICATION SITE ERYTHEMA",null,"HLT_0617",null,"HLGT_0152",null,"GENERAL DISORDERS AND ADMINISTRATION SITE CONDITIONS","GENERAL DISORDERS AND ADMINISTRATION SITE CONDITIONS",null,"MILD","N","N","N","N","N","N","N","N","POSSIBLE","","NOT RECOVERED/NOT RESOLVED",5,"Y","","","","","","","DERMATOLOGIC EVENTS",""],[213,"CDISCPILOT01","701","01-701-1383","Xanomeline High Dose",81,72,"65-80",2,"WHITE",1,"F","Y",19393,19576,19460,"",68,null,null,null,"","APPLICATION SITE IRRITATION","APPLICATION SITE BURNING",null,"APPLICATION SITE IRRITATION",null,"HLT_0061",null,"HLGT_0346",null,"GENERAL DISORDERS AND ADMINISTRATION SITE CONDITIONS","GENERAL DISORDERS AND ADMINISTRATION SITE CONDITIONS",null,"MILD","N","N","N","N","N","N","N","N","POSSIBLE","","NOT RECOVERED/NOT RESOLVED",6,"Y","","","Y","","","","DERMATOLOGIC EVENTS",""],[214,"CDISCPILOT01","701","01-701-1383","Xanomeline High Dose",81,72,"65-80",2,"WHITE",1,"F","Y",19393,19576,19440,"",48,null,null,null,"","APPLICATION SITE PRURITUS","APPLICATION SITE ITCHING",null,"APPLICATION SITE PRURITUS",null,"HLT_0317",null,"HLGT_0338",null,"GENERAL DISORDERS AND ADMINISTRATION SITE CONDITIONS","GENERAL DISORDERS AND ADMINISTRATION SITE CONDITIONS",null,"MODERATE","N","N","N","N","N","N","N","N","POSSIBLE","","NOT RECOVERED/NOT RESOLVED",7,"Y","","","","","","","DERMATOLOGIC EVENTS",""],[215,"CDISCPILOT01","701","01-701-1383","Xanomeline High Dose",81,72,"65-80",2,"WHITE",1,"F","Y",19393,19576,19460,"",68,null,null,null,"","APPLICATION SITE IRRITATION","APPLICATION SITE BURNING",null,"APPLICATION SITE IRRITATION",null,"HLT_0061",null,"HLGT_0346",null,"GENERAL DISORDERS AND ADMINISTRATION SITE CONDITIONS","GENERAL DISORDERS AND ADMINISTRATION SITE CONDITIONS",null,"MODERATE","N","N","N","N","N","N","N","N","POSSIBLE","","NOT RECOVERED/NOT RESOLVED",8,"Y","","","","","","","DERMATOLOGIC EVENTS",""],[216,"CDISCPILOT01","701","01-701-1383","Xanomeline High Dose",81,72,"65-80",2,"WHITE",1,"F","Y",19393,19576,19485,"",93,19502,110,18,"DAY","APPLICATION SITE VESICLES","APPLICATION SITE BLISTER",null,"APPLICATION SITE VESICLES",null,"HLT_0180",null,"HLGT_0576",null,"GENERAL DISORDERS AND ADMINISTRATION SITE CONDITIONS","GENERAL DISORDERS AND ADMINISTRATION SITE CONDITIONS",null,"MILD","N","N","N","N","N","N","N","N","POSSIBLE","","RECOVERED/RESOLVED",9,"Y","","","Y","","","","DERMATOLOGIC EVENTS",""],[217,"CDISCPILOT01","701","01-701-1383","Xanomeline High Dose",81,72,"65-80",2,"WHITE",1,"F","Y",19393,19576,19533,"",141,19533,141,1,"DAY","CHEST DISCOMFORT","CHEST PRESSURE",null,"CHEST DISCOMFORT",null,"HLT_0593",null,"HLGT_0441",null,"GENERAL DISORDERS AND ADMINISTRATION SITE CONDITIONS","GENERAL DISORDERS AND ADMINISTRATION SITE CONDITIONS",null,"MILD","N","N","N","N","N","N","N","N","NONE","","RECOVERED/RESOLVED",10,"Y","","","Y","","","","",""],[218,"CDISCPILOT01","701","01-701-1383","Xanomeline High Dose",81,72,"65-80",2,"WHITE",1,"F","Y",19393,19576,19533,"",141,19533,141,1,"DAY","HEADACHE","FULLNESS HEAD",null,"HEADACHE",null,"HLT_0064",null,"HLGT_0344",null,"NERVOUS SYSTEM DISORDERS","NERVOUS SYSTEM DISORDERS",null,"MILD","N","N","N","N","N","N","N","N","NONE","","RECOVERED/RESOLVED",11,"Y","","Y","Y","","","","",""],[219,"CDISCPILOT01","701","01-701-1383","Xanomeline High Dose",81,72,"65-80",2,"WHITE",1,"F","Y",19393,19576,19556,"",164,19565,173,10,"DAY","COUGH","COUGH",null,"COUGH",null,"HLT_0701",null,"HLGT_0280",null,"RESPIRATORY, THORACIC AND MEDIASTINAL DISORDERS","RESPIRATORY, THORACIC AND MEDIASTINAL DISORDERS",null,"MODERATE","N","N","N","N","N","N","N","N","NONE","","RECOVERED/RESOLVED",12,"Y","","Y","Y","","","","",""],[220,"CDISCPILOT01","701","01-701-1387","Placebo",0,87,">80",3,"WHITE",1,"F","Y",19794,19807,19800,"",7,19800,7,1,"DAY","DIARRHOEA","DIARRHEA",null,"DIARRHOEA",null,"HLT_0148",null,"HLGT_0588",null,"GASTROINTESTINAL DISORDERS","GASTROINTESTINAL DISORDERS",null,"MILD","N","N","N","N","N","N","N","N","REMOTE","","RECOVERED/RESOLVED",1,"Y","Y","Y","Y","","","","",""],[221,"CDISCPILOT01","701","01-701-1387","Placebo",0,87,">80",3,"WHITE",1,"F","Y",19794,19807,19800,"",7,19800,7,1,"DAY","HYPERHIDROSIS","SWEATING",null,"HYPERHIDROSIS",null,"HLT_0587",null,"HLGT_0005",null,"SKIN AND SUBCUTANEOUS TISSUE DISORDERS","SKIN AND SUBCUTANEOUS TISSUE DISORDERS",null,"MILD","N","N","N","N","N","N","N","N","REMOTE","","RECOVERED/RESOLVED",2,"Y","","Y","Y","","","","",""],[222,"CDISCPILOT01","701","01-701-1392","Placebo",0,78,"65-80",2,"WHITE",1,"M","Y",19294,19476,19433,"",140,19438,145,6,"DAY","UPPER RESPIRATORY TRACT INFECTION","UPPER RESPIRATORY INFECTION",null,"UPPER RESPIRATORY TRACT INFECTION",null,"HLT_0520",null,"HLGT_0489",null,"INFECTIONS AND INFESTATIONS","INFECTIONS AND INFESTATIONS",null,"MILD","N","N","N","N","N","N","N","N","REMOTE","","NOT RECOVERED/NOT RESOLVED",1,"Y","Y","Y","Y","","","","",""],[223,"CDISCPILOT01","701","01-701-1392","Placebo",0,78,"65-80",2,"WHITE",1,"M","Y",19294,19476,19433,"",140,19438,145,6,"DAY","UPPER RESPIRATORY TRACT INFECTION","UPPER RESPIRATORY INFECTION",null,"UPPER RESPIRATORY TRACT INFECTION",null,"HLT_0520",null,"HLGT_0489",null,"INFECTIONS AND INFESTATIONS","INFECTIONS AND INFESTATIONS",null,"MILD","N","N","N","N","N","N","N","N","REMOTE","","RECOVERED/RESOLVED",2,"Y","","","","","","","",""],[224,"CDISCPILOT01","701","01-701-1415","Placebo",0,85,">80",3,"WHITE",1,"M","Y",19624,19806,19652,"",29,19666,43,15,"DAY","UPPER RESPIRATORY TRACT INFECTION","UPPER RESPIRATORY INFECTION",null,"UPPER RESPIRATORY TRACT INFECTION",null,"HLT_0520",null,"HLGT_0489",null,"INFECTIONS AND INFESTATIONS","INFECTIONS AND INFESTATIONS",null,"MILD","N","N","N","N","N","N","N","N","NONE","","NOT RECOVERED/NOT RESOLVED",1,"Y","Y","Y","Y","","","","",""],[225,"CDISCPILOT01","701","01-701-1415","Placebo",0,85,">80",3,"WHITE",1,"M","Y",19624,19806,19652,"",29,19666,43,15,"DAY","UPPER RESPIRATORY TRACT INFECTION","UPPER RESPIRATORY INFECTION",null,"UPPER RESPIRATORY TRACT INFECTION",null,"HLT_0520",null,"HLGT_0489",null,"INFECTIONS AND INFESTATIONS","INFECTIONS AND INFESTATIONS",null,"MILD","N","N","N","N","N","N","N","N","NONE","","RECOVERED/RESOLVED",2,"Y","","","","","","","",""],[226,"CDISCPILOT01","701","01-701-1415","Placebo",0,85,">80",3,"WHITE",1,"M","Y",19624,19806,19694,"",71,null,null,null,"","MICTURITION URGENCY","URINARY URGENCY",null,"MICTURITION URGENCY",null,"HLT_0294",null,"HLGT_0483",null,"RENAL AND URINARY DISORDERS","RENAL AND URINARY DISORDERS",null,"MILD","N","N","N","N","N","N","N","N","NONE","","NOT RECOVERED/NOT RESOLVED",3,"Y","","Y","Y","","","","",""],[227,"CDISCPILOT01","701","01-701-1415","Placebo",0,85,">80",3,"WHITE",1,"M","Y",19624,19806,19744,"",121,19764,141,21,"DAY","UPPER RESPIRATORY TRACT INFECTION","UPPER RESPIRATORY INFECTION",null,"UPPER RESPIRATORY TRACT INFECTION",null,"HLT_0520",null,"HLGT_0489",null,"INFECTIONS AND INFESTATIONS","INFECTIONS AND INFESTATIONS",null,"MILD","N","N","N","N","N","N","N","N","REMOTE","","NOT RECOVERED/NOT RESOLVED",4,"Y","","","","","","","",""],[228,"CDISCPILOT01","701","01-701-1415","Placebo",0,85,">80",3,"WHITE",1,"M","Y",19624,19806,19744,"",121,19764,141,21,"DAY","UPPER RESPIRATORY TRACT INFECTION","UPPER RESPIRATORY INFECTION",null,"UPPER RESPIRATORY TRACT INFECTION",null,"HLT_0520",null,"HLGT_0489",null,"INFECTIONS AND INFESTATIONS","INFECTIONS AND INFESTATIONS",null,"MILD","N","N","N","N","N","N","N","N","REMOTE","","RECOVERED/RESOLVED",5,"Y","","","","","","","",""],[229,"CDISCPILOT01","701","01-701-1415","Placebo",0,85,">80",3,"WHITE",1,"M","Y",19624,19806,19791,"",168,19791,168,1,"DAY","DIARRHOEA","DIARRHEA",null,"DIARRHOEA",null,"HLT_0148",null,"HLGT_0588",null,"GASTROINTESTINAL DISORDERS","GASTROINTESTINAL DISORDERS",null,"MILD","N","N","N","N","N","N","N","N","NONE","","RECOVERED/RESOLVED",6,"Y","","Y","Y","","","","",""],[230,"CDISCPILOT01","701","01-701-1442","Xanomeline Low Dose",54,57,"<65",1,"BLACK OR AFRICAN AMERICAN",2,"F","Y",19657,19839,19733,"",77,null,null,null,"","APPLICATION SITE PRURITUS","APPLICATION SITE ITCHING",null,"APPLICATION SITE PRURITUS",null,"HLT_0317",null,"HLGT_0338",null,"GENERAL DISORDERS AND ADMINISTRATION SITE CONDITIONS","GENERAL DISORDERS AND ADMINISTRATION SITE CONDITIONS",null,"MILD","N","N","N","N","N","N","N","N","PROBABLE","","NOT RECOVERED/NOT RESOLVED",1,"Y","Y","Y","Y","","","","DERMATOLOGIC EVENTS","Y"],[231,"CDISCPILOT01","701","01-701-1444","Xanomeline High Dose",81,63,"<65",1,"WHITE",1,"M","Y",19363,19401,19377,"",15,null,null,null,"","APPLICATION SITE ERYTHEMA","APPLICATION SITE ERYTHEMA",null,"APPLICATION SITE ERYTHEMA",null,"HLT_0617",null,"HLGT_0152",null,"GENERAL DISORDERS AND ADMINISTRATION SITE CONDITIONS","GENERAL DISORDERS AND ADMINISTRATION SITE CONDITIONS",null,"MILD","N","N","N","N","N","N","N","N","POSSIBLE","","NOT RECOVERED/NOT RESOLVED",1,"Y","Y","Y","Y","","","","DERMATOLOGIC EVENTS","Y"],[232,"CDISCPILOT01","701","01-701-1444","Xanomeline High Dose",81,63,"<65",1,"WHITE",1,"M","Y",19363,19401,19377,"",15,null,null,null,"","APPLICATION SITE PRURITUS","APPLICATION SITE ITCHING",null,"APPLICATION SITE PRURITUS",null,"HLT_0317",null,"HLGT_0338",null,"GENERAL DISORDERS AND ADMINISTRATION SITE CONDITIONS","GENERAL DISORDERS AND ADMINISTRATION SITE CONDITIONS",null,"MILD","N","N","N","N","N","N","N","N","PROBABLE","","NOT RECOVERED/NOT RESOLVED",2,"Y","","","Y","","","","DERMATOLOGIC EVENTS",""],[233,"CDISCPILOT01","701","01-701-1444","Xanomeline High Dose",81,63,"<65",1,"WHITE",1,"M","Y",19363,19401,19377,"",15,null,null,null,"","SALIVARY HYPERSECRETION","HYPERSALIVATION",null,"SALIVARY HYPERSECRETION",null,"HLT_0374",null,"HLGT_0488",null,"GASTROINTESTINAL DISORDERS","GASTROINTESTINAL DISORDERS",null,"MILD","N","N","N","N","N","N","N","N","POSSIBLE","","NOT RECOVERED/NOT RESOLVED",3,"Y","","Y","Y","","","","",""],[234,"CDISCPILOT01","701","01-701-1444","Xanomeline High Dose",81,63,"<65",1,"WHITE",1,"M","Y",19363,19401,19377,"",15,null,null,null,"","APPLICATION SITE ERYTHEMA","APPLICATION SITE ERYTHEMA",null,"APPLICATION SITE ERYTHEMA",null,"HLT_0617",null,"HLGT_0152",null,"GENERAL DISORDERS AND ADMINISTRATION SITE CONDITIONS","GENERAL DISORDERS AND ADMINISTRATION SITE CONDITIONS",null,"MODERATE","N","N","N","N","N","N","N","N","POSSIBLE","","NOT RECOVERED/NOT RESOLVED",4,"Y","","","","","","","DERMATOLOGIC EVENTS",""],[235,"CDISCPILOT01","701","01-701-1444","Xanomeline High Dose",81,63,"<65",1,"WHITE",1,"M","Y",19363,19401,19377,"",15,null,null,null,"","APPLICATION SITE PRURITUS","APPLICATION SITE ITCHING",null,"APPLICATION SITE PRURITUS",null,"HLT_0317",null,"HLGT_0338",null,"GENERAL DISORDERS AND ADMINISTRATION SITE CONDITIONS","GENERAL DISORDERS AND ADMINISTRATION SITE CONDITIONS",null,"MODERATE","N","N","N","N","N","N","N","N","PROBABLE","","NOT RECOVERED/NOT RESOLVED",5,"Y","","","","","","","DERMATOLOGIC EVENTS",""],[236,"CDISCPILOT01","701","01-701-1444","Xanomeline High Dose",81,63,"<65",1,"WHITE",1,"M","Y",19363,19401,19393,"",31,null,null,null,"","APPLICATION SITE IRRITATION","APPLICATION SITE BURNING",null,"APPLICATION SITE IRRITATION",null,"HLT_0061",null,"HLGT_0346",null,"GENERAL DISORDERS AND ADMINISTRATION SITE CONDITIONS","GENERAL DISORDERS AND ADMINISTRATION SITE CONDITIONS",null,"MODERATE","N","N","N","N","N","N","N","N","PROBABLE","","NOT RECOVERED/NOT RESOLVED",6,"Y","","","Y","","","","DERMATOLOGIC EVENTS",""],[237,"CDISCPILOT01","701","01-701-1444","Xanomeline High Dose",81,63,"<65",1,"WHITE",1,"M","Y",19363,19401,19393,"",31,null,null,null,"","APPLICATION SITE VESICLES","APPLICATION SITE BLISTER",null,"APPLICATION SITE VESICLES",null,"HLT_0180",null,"HLGT_0576",null,"GENERAL DISORDERS AND ADMINISTRATION SITE CONDITIONS","GENERAL DISORDERS AND ADMINISTRATION SITE CONDITIONS",null,"MODERATE","N","N","N","N","N","N","N","N","PROBABLE","","NOT RECOVERED/NOT RESOLVED",7,"Y","","","Y","","","","DERMATOLOGIC EVENTS",""],[238,"CDISCPILOT01","701","01-701-1444","Xanomeline High Dose",81,63,"<65",1,"WHITE",1,"M","Y",19363,19401,19397,"",35,19397,35,1,"DAY","PARAESTHESIA","TINGLING",null,"PARAESTHESIA",null,"HLT_0481",null,"HLGT_0534",null,"NERVOUS SYSTEM DISORDERS","NERVOUS SYSTEM DISORDERS",null,"MILD","N","N","N","N","N","N","N","N","NONE","","RECOVERED/RESOLVED",8,"Y","","Y","Y","","","","",""],[239,"CDISCPILOT01","702","01-702-1082","Xanomeline Low Dose",54,84,">80",3,"WHITE",1,"F","Y",19565,19644,19546,"",-19,19565,1,20,"DAY","WHITE BLOOD CELL COUNT INCREASED","WBC INCREASED",null,"WHITE BLOOD CELL COUNT INCREASED",null,"HLT_0417",null,"HLGT_0465",null,"INVESTIGATIONS","INVESTIGATIONS",null,"MILD","N","N","N","N","N","N","N","N","NONE","","NOT RECOVERED/NOT RESOLVED",1,"","","","","","","","",""],[240,"CDISCPILOT01","702","01-702-1082","Xanomeline Low Dose",54,84,">80",3,"WHITE",1,"F","Y",19565,19644,19546,"",-19,19565,1,20,"DAY","NEUTROPHIL COUNT INCREASED","NEUTROPHIL COUNT INCREASED",null,"NEUTROPHIL COUNT INCREASED",null,"HLT_0326",null,"HLGT_0625",null,"INVESTIGATIONS","INVESTIGATIONS",null,"MILD","N","N","N","N","N","N","N","N","NONE","","NOT RECOVERED/NOT RESOLVED",2,"","","","","","","","",""],[241,"CDISCPILOT01","702","01-702-1082","Xanomeline Low Dose",54,84,">80",3,"WHITE",1,"F","Y",19565,19644,19546,"",-19,19563,-2,18,"DAY","URINE ANALYSIS ABNORMAL","URINE ANALYSIS ABNORMAL",null,"URINE ANALYSIS ABNORMAL",null,"HLT_0783",null,"HLGT_0295",null,"INVESTIGATIONS","INVESTIGATIONS",null,"MILD","N","N","N","N","N","N","N","N","NONE","","NOT RECOVERED/NOT RESOLVED",3,"","","","","","","","",""],[242,"CDISCPILOT01","702","01-702-1082","Xanomeline Low Dose",54,84,">80",3,"WHITE",1,"F","Y",19565,19644,19546,"",-19,19563,-2,18,"DAY","URINE ANALYSIS ABNORMAL","URINE ANALYSIS ABNORMAL",null,"URINE ANALYSIS ABNORMAL",null,"HLT_0783",null,"HLGT_0295",null,"INVESTIGATIONS","INVESTIGATIONS",null,"MILD","N","N","N","N","N","N","N","N","NONE","","RECOVERED/RESOLVED",4,"","","","","","","","",""],[243,"CDISCPILOT01","702","01-702-1082","Xanomeline Low Dose",54,84,">80",3,"WHITE",1,"F","Y",19565,19644,19546,"",-19,19565,1,20,"DAY","WHITE BLOOD CELL COUNT INCREASED","WBC INCREASED",null,"WHITE BLOOD CELL COUNT INCREASED",null,"HLT_0417",null,"HLGT_0465",null,"INVESTIGATIONS","INVESTIGATIONS",null,"MILD","N","N","N","N","N","N","N","N","NONE","","RECOVERED/RESOLVED",5,"","","","","","","","",""],[244,"CDISCPILOT01","702","01-702-1082","Xanomeline Low Dose",54,84,">80",3,"WHITE",1,"F","Y",19565,19644,19546,"",-19,19565,1,20,"DAY","NEUTROPHIL COUNT INCREASED","NEUTROPHIL COUNT INCREASED",null,"NEUTROPHIL COUNT INCREASED",null,"HLT_0326",null,"HLGT_0625",null,"INVESTIGATIONS","INVESTIGATIONS",null,"MILD","N","N","N","N","N","N","N","N","NONE","","RECOVERED/RESOLVED",6,"","","","","","","","",""],[245,"CDISCPILOT01","702","01-702-1082","Xanomeline Low Dose",54,84,">80",3,"WHITE",1,"F","Y",19565,19644,19603,"",39,19607,43,5,"DAY","RECTAL HAEMORRHAGE","RECTAL BLEEDING",null,"RECTAL HAEMORRHAGE",null,"HLT_0353",null,"HLGT_0755",null,"GASTROINTESTINAL DISORDERS","GASTROINTESTINAL DISORDERS",null,"MILD","N","N","N","N","N","N","N","N","NONE","","NOT RECOVERED/NOT RESOLVED",7,"Y","Y","Y","Y","","","","",""],[246,"CDISCPILOT01","702","01-702-1082","Xanomeline Low Dose",54,84,">80",3,"WHITE",1,"F","Y",19565,19644,19603,"",39,19607,43,5,"DAY","RECTAL HAEMORRHAGE","RECTAL BLEEDING",null,"RECTAL HAEMORRHAGE",null,"HLT_0353",null,"HLGT_0755",null,"GASTROINTESTINAL DISORDERS","GASTROINTESTINAL DISORDERS",null,"MILD","N","N","N","N","N","N","N","N","NONE","","RECOVERED/RESOLVED",8,"Y","","","","","","","",""],[247,"CDISCPILOT01","702","01-702-1082","Xanomeline Low Dose",54,84,">80",3,"WHITE",1,"F","Y",19565,19644,19610,"",46,19625,61,16,"DAY","APPLICATION SITE IRRITATION","APPLICATION SITE IRRITATION",null,"APPLICATION SITE IRRITATION",null,"HLT_0061",null,"HLGT_0346",null,"GENERAL DISORDERS AND ADMINISTRATION SITE CONDITIONS","GENERAL DISORDERS AND ADMINISTRATION SITE CONDITIONS",null,"MILD","N","N","N","N","N","N","N","N","PROBABLE","","RECOVERED/RESOLVED",9,"Y","","Y","Y","","","","DERMATOLOGIC EVENTS","Y"],[248,"CDISCPILOT01","702","01-702-1082","Xanomeline Low Dose",54,84,">80",3,"WHITE",1,"F","Y",19565,19644,19643,"",79,19662,98,20,"DAY","SKIN IRRITATION","SKIN IRRITATION",null,"SKIN IRRITATION",null,"HLT_0583",null,"HLGT_0384",null,"SKIN AND SUBCUTANEOUS TISSUE DISORDERS","SKIN AND SUBCUTANEOUS TISSUE DISORDERS",null,"MODERATE","N","N","N","N","N","N","N","N","PROBABLE","","RECOVERED/RESOLVED",10,"Y","","Y","Y","","","","DERMATOLOGIC EVENTS",""],[249,"CDISCPILOT01","703","01-703-1042","Placebo",0,64,"<65",1,"WHITE",1,"M","Y",19419,19601,19421,"",3,19422,4,2,"DAY","DIARRHOEA","DIARRHEA",null,"DIARRHOEA",null,"HLT_0148",null,"HLGT_0588",null,"GASTROINTESTINAL DISORDERS","GASTROINTESTINAL DISORDERS",null,"MILD","N","N","N","N","N","N","N","N","POSSIBLE","","RECOVERED/RESOLVED",1,"Y","Y","Y","Y","","","","",""],[250,"CDISCPILOT01","703","01-703-1042","Placebo",0,64,"<65",1,"WHITE",1,"M","Y",19419,19601,19422,"",4,19423,5,2,"DAY","INSOMNIA","INSOMNIA",null,"INSOMNIA",null,"HLT_0297",null,"HLGT_0469",null,"PSYCHIATRIC DISORDERS","PSYCHIATRIC DISORDERS",null,"MILD","N","N","N","N","N","N","N","N","REMOTE","","RECOVERED/RESOLVED",2,"Y","","Y","Y","","","","",""],[251,"CDISCPILOT01","703","01-703-1076","Xanomeline High Dose",81,69,"65-80",2,"WHITE",1,"M","Y",19656,19716,19678,"",23,19678,23,1,"DAY","BIOPSY PROSTATE","BIOPSY OF PROSTATE",null,"BIOPSY PROSTATE",null,"HLT_0553",null,"HLGT_0725",null,"INVESTIGATIONS","INVESTIGATIONS",null,"MODERATE","N","N","N","N","N","N","N","N","NONE","","RECOVERED/RESOLVED",1,"Y","Y","Y","Y","","","","",""],[252,"CDISCPILOT01","703","01-703-1076","Xanomeline High Dose",81,69,"65-80",2,"WHITE",1,"M","Y",19656,19716,19682,"",27,null,null,null,"","BENIGN PROSTATIC HYPERPLASIA","BENIGN PROSTATIC HYPERTROPHY",null,"BENIGN PROSTATIC HYPERPLASIA",null,"HLT_0215",null,"HLGT_0568",null,"REPRODUCTIVE SYSTEM AND BREAST DISORDERS","REPRODUCTIVE SYSTEM AND BREAST DISORDERS",null,"MODERATE","N","N","N","N","N","N","N","N","NONE","","NOT RECOVERED/NOT RESOLVED",2,"Y","","Y","Y","","","","",""],[253,"CDISCPILOT01","703","01-703-1076","Xanomeline High Dose",81,69,"65-80",2,"WHITE",1,"M","Y",19656,19716,null,"",null,null,null,null,"","HYPERCHOLESTEROLAEMIA","HYPERCHOLESTEROLEMIA",null,"HYPERCHOLESTEROLAEMIA",null,"HLT_0025",null,"HLGT_0703",null,"METABOLISM AND NUTRITION DISORDERS","METABOLISM AND NUTRITION DISORDERS",null,"MODERATE","N","N","N","N","N","N","N","N","NONE","","NOT RECOVERED/NOT RESOLVED",3,"","","","","","","","",""],[254,"CDISCPILOT01","703","01-703-1076","Xanomeline High Dose",81,69,"65-80",2,"WHITE",1,"M","Y",19656,19716,19685,"",30,null,null,null,"","APPLICATION SITE PRURITUS","APPLICATION SITE ITCHING",null,"APPLICATION SITE PRURITUS",null,"HLT_0317",null,"HLGT_0338",null,"GENERAL DISORDERS AND ADMINISTRATION SITE CONDITIONS","GENERAL DISORDERS AND ADMINISTRATION SITE CONDITIONS",null,"MILD","N","N","N","N","N","N","N","N","PROBABLE","","NOT RECOVERED/NOT RESOLVED",4,"Y","","Y","Y","","","","DERMATOLOGIC EVENTS","Y"],[255,"CDISCPILOT01","703","01-703-1076","Xanomeline High Dose",81,69,"65-80",2,"WHITE",1,"M","Y",19656,19716,19685,"",30,null,null,null,"","APPLICATION SITE DERMATITIS","APPLICATION SITE RASH",null,"APPLICATION SITE DERMATITIS",null,"HLT_0343",null,"HLGT_0241",null,"GENERAL DISORDERS AND ADMINISTRATION SITE CONDITIONS","GENERAL DISORDERS AND ADMINISTRATION SITE CONDITIONS",null,"MILD","N","N","N","N","N","N","N","N","PROBABLE","","NOT RECOVERED/NOT RESOLVED",5,"Y","","","Y","","","","DERMATOLOGIC EVENTS",""],[256,"CDISCPILOT01","703","01-703-1076","Xanomeline High Dose",81,69,"65-80",2,"WHITE",1,"M","Y",19656,19716,19687,"",32,null,null,null,"","HYPERHIDROSIS","SWEATING",null,"HYPERHIDROSIS",null,"HLT_0587",null,"HLGT_0005",null,"SKIN AND SUBCUTANEOUS TISSUE DISORDERS","SKIN AND SUBCUTANEOUS TISSUE DISORDERS",null,"MILD","N","N","N","N","N","N","N","N","POSSIBLE","","NOT RECOVERED/NOT RESOLVED",6,"Y","","Y","Y","","","","",""],[257,"CDISCPILOT01","703","01-703-1076","Xanomeline High Dose",81,69,"65-80",2,"WHITE",1,"M","Y",19656,19716,19685,"",30,null,null,null,"","APPLICATION SITE PRURITUS","APPLICATION SITE ITCHING",null,"APPLICATION SITE PRURITUS",null,"HLT_0317",null,"HLGT_0338",null,"GENERAL DISORDERS AND ADMINISTRATION SITE CONDITIONS","GENERAL DISORDERS AND ADMINISTRATION SITE CONDITIONS",null,"MODERATE","N","N","N","N","N","N","N","N","PROBABLE","","NOT RECOVERED/NOT RESOLVED",7,"Y","","","","","","","DERMATOLOGIC EVENTS",""],[258,"CDISCPILOT01","703","01-703-1086","Xanomeline Low Dose",54,71,"65-80",2,"WHITE",1,"M","Y",19238,19331,19249,"",12,19360,123,112,"DAY","APPLICATION SITE IRRITATION","APPLICATION SITE IRRITATION",null,"APPLICATION SITE IRRITATION",null,"HLT_0061",null,"HLGT_0346",null,"GENERAL DISORDERS AND ADMINISTRATION SITE CONDITIONS","GENERAL DISORDERS AND ADMINISTRATION SITE CONDITIONS",null,"MILD","N","N","N","N","N","N","N","N","PROBABLE","","NOT RECOVERED/NOT RESOLVED",1,"Y","Y","Y","Y","","","","DERMATOLOGIC EVENTS","Y"],[259,"CDISCPILOT01","703","01-703-1086","Xanomeline Low Dose",54,71,"65-80",2,"WHITE",1,"M","Y",19238,19331,19249,"",12,19360,123,112,"DAY","APPLICATION SITE IRRITATION","APPLICATION SITE IRRITATION",null,"APPLICATION SITE IRRITATION",null,"HLT_0061",null,"HLGT_0346",null,"GENERAL DISORDERS AND ADMINISTRATION SITE CONDITIONS","GENERAL DISORDERS AND ADMINISTRATION SITE CONDITIONS",null,"MODERATE","N","N","N","N","N","N","N","N","PROBABLE","","NOT RECOVERED/NOT RESOLVED",2,"Y","","","","","","","DERMATOLOGIC EVENTS",""],[260,"CDISCPILOT01","703","01-703-1086","Xanomeline Low Dose",54,71,"65-80",2,"WHITE",1,"M","Y",19238,19331,19249,"",12,19360,123,112,"DAY","APPLICATION SITE IRRITATION","APPLICATION SITE IRRITATION",null,"APPLICATION SITE IRRITATION",null,"HLT_0061",null,"HLGT_0346",null,"GENERAL DISORDERS AND ADMINISTRATION SITE CONDITIONS","GENERAL DISORDERS AND ADMINISTRATION SITE CONDITIONS",null,"SEVERE","N","N","N","N","N","N","N","N","PROBABLE","","NOT RECOVERED/NOT RESOLVED",3,"Y","","","","","","","DERMATOLOGIC EVENTS",""],[261,"CDISCPILOT01","703","01-703-1086","Xanomeline Low Dose",54,71,"65-80",2,"WHITE",1,"M","Y",19238,19331,19275,"",38,19281,44,7,"DAY","CHILLS","CHILLS",null,"CHILLS",null,"HLT_0586",null,"HLGT_0161",null,"GENERAL DISORDERS AND ADMINISTRATION SITE CONDITIONS","GENERAL DISORDERS AND ADMINISTRATION SITE CONDITIONS",null,"MILD","N","N","N","N","N","N","N","N","POSSIBLE","","NOT RECOVERED/NOT RESOLVED",4,"Y","","","Y","","","","",""],[262,"CDISCPILOT01","703","01-703-1086","Xanomeline Low Dose",54,71,"65-80",2,"WHITE",1,"M","Y",19238,19331,19275,"",38,19281,44,7,"DAY","CHILLS","CHILLS",null,"CHILLS",null,"HLT_0586",null,"HLGT_0161",null,"GENERAL DISORDERS AND ADMINISTRATION SITE CONDITIONS","GENERAL DISORDERS AND ADMINISTRATION SITE CONDITIONS",null,"MILD","N","N","N","N","N","N","N","N","POSSIBLE","","RECOVERED/RESOLVED",5,"Y","","","","","","","",""],[263,"CDISCPILOT01","703","01-703-1086","Xanomeline Low Dose",54,71,"65-80",2,"WHITE",1,"M","Y",19238,19331,19249,"",12,19360,123,112,"DAY","APPLICATION SITE IRRITATION","APPLICATION SITE IRRITATION",null,"APPLICATION SITE IRRITATION",null,"HLT_0061",null,"HLGT_0346",null,"GENERAL DISORDERS AND ADMINISTRATION SITE CONDITIONS","GENERAL DISORDERS AND ADMINISTRATION SITE CONDITIONS",null,"MILD","N","N","N","N","N","N","N","N","PROBABLE","","RECOVERED/RESOLVED",6,"Y","","","","","","","DERMATOLOGIC EVENTS",""],[264,"CDISCPILOT01","703","01-703-1100","Placebo",0,84,">80",3,"WHITE",1,"F","Y",19430,19615,19453,"",24,19464,35,12,"DAY","APPLICATION SITE IRRITATION","APPLICATION SITE IRRITATION",null,"APPLICATION SITE IRRITATION",null,"HLT_0061",null,"HLGT_0346",null,"GENERAL DISORDERS AND ADMINISTRATION SITE CONDITIONS","GENERAL DISORDERS AND ADMINISTRATION SITE CONDITIONS",null,"MODERATE","N","N","N","N","N","N","N","N","PROBABLE","","NOT RECOVERED/NOT RESOLVED",1,"Y","Y","Y","Y","","","","DERMATOLOGIC EVENTS","Y"],[265,"CDISCPILOT01","703","01-703-1100","Placebo",0,84,">80",3,"WHITE",1,"F","Y",19430,19615,19453,"",24,19464,35,12,"DAY","APPLICATION SITE IRRITATION","APPLICATION SITE IRRITATION",null,"APPLICATION SITE IRRITATION",null,"HLT_0061",null,"HLGT_0346",null,"GENERAL DISORDERS AND ADMINISTRATION SITE CONDITIONS","GENERAL DISORDERS AND ADMINISTRATION SITE CONDITIONS",null,"MILD","N","N","N","N","N","N","N","N","PROBABLE","","NOT RECOVERED/NOT RESOLVED",2,"Y","","","","","","","DERMATOLOGIC EVENTS",""],[266,"CDISCPILOT01","703","01-703-1100","Placebo",0,84,">80",3,"WHITE",1,"F","Y",19430,19615,19453,"",24,19464,35,12,"DAY","APPLICATION SITE IRRITATION","APPLICATION SITE IRRITATION",null,"APPLICATION SITE IRRITATION",null,"HLT_0061",null,"HLGT_0346",null,"GENERAL DISORDERS AND ADMINISTRATION SITE CONDITIONS","GENERAL DISORDERS AND ADMINISTRATION SITE CONDITIONS",null,"MILD","N","N","N","N","N","N","N","N","PROBABLE","","RECOVERED/RESOLVED",3,"Y","","","","","","","DERMATOLOGIC EVENTS",""],[267,"CDISCPILOT01","703","01-703-1100","Placebo",0,84,">80",3,"WHITE",1,"F","Y",19430,19615,19473,"",44,19473,44,1,"DAY","CATARACT OPERATION","CATARACT EXTRACTION",null,"CATARACT OPERATION",null,"HLT_0432",null,"HLGT_0058",null,"SURGICAL AND MEDICAL PROCEDURES","SURGICAL AND MEDICAL PROCEDURES",null,"MODERATE","N","N","N","N","N","N","N","N","NONE","","RECOVERED/RESOLVED",4,"Y","","Y","Y","","","","",""],[268,"CDISCPILOT01","703","01-703-1100","Placebo",0,84,">80",3,"WHITE",1,"F","Y",19430,19615,19505,"",76,19512,83,8,"DAY","UPPER RESPIRATORY TRACT INFECTION","UPPER RESPIRATORY INFECTION",null,"UPPER RESPIRATORY TRACT INFECTION",null,"HLT_0520",null,"HLGT_0489",null,"INFECTIONS AND INFESTATIONS","INFECTIONS AND INFESTATIONS",null,"MODERATE","N","N","N","N","N","N","N","N","REMOTE","","RECOVERED/RESOLVED",5,"Y","","Y","Y","","","","",""],[269,"CDISCPILOT01","703","01-703-1100","Placebo",0,84,">80",3,"WHITE",1,"F","Y",19430,19615,19417,"",-13,19615,186,199,"DAY","OEDEMA PERIPHERAL","LEG EDEMA",null,"OEDEMA PERIPHERAL",null,"HLT_0661",null,"HLGT_0137",null,"GENERAL DISORDERS AND ADMINISTRATION SITE CONDITIONS","GENERAL DISORDERS AND ADMINISTRATION SITE CONDITIONS",null,"MODERATE","N","N","N","N","N","N","N","N","REMOTE","","NOT RECOVERED/NOT RESOLVED",6,"","","","","","","","",""],[270,"CDISCPILOT01","703","01-703-1100","Placebo",0,84,">80",3,"WHITE",1,"F","Y",19430,19615,19556,"",127,19615,186,60,"DAY","OEDEMA PERIPHERAL","LEG EDEMA",null,"OEDEMA PERIPHERAL",null,"HLT_0661",null,"HLGT_0137",null,"GENERAL DISORDERS AND ADMINISTRATION SITE CONDITIONS","GENERAL DISORDERS AND ADMINISTRATION SITE CONDITIONS",null,"MILD","N","N","N","N","N","N","N","N","REMOTE","","NOT RECOVERED/NOT RESOLVED",7,"Y","","","Y","","","","",""],[271,"CDISCPILOT01","703","01-703-1100","Placebo",0,84,">80",3,"WHITE",1,"F","Y",19430,19615,19417,"",-13,19615,186,199,"DAY","OEDEMA PERIPHERAL","LEG EDEMA",null,"OEDEMA PERIPHERAL",null,"HLT_0661",null,"HLGT_0137",null,"GENERAL DISORDERS AND ADMINISTRATION SITE CONDITIONS","GENERAL DISORDERS AND ADMINISTRATION SITE CONDITIONS",null,"MODERATE","N","N","N","N","N","N","N","N","REMOTE","","RECOVERED/RESOLVED",8,"","","","","","","","",""],[272,"CDISCPILOT01","703","01-703-1100","Placebo",0,84,">80",3,"WHITE",1,"F","Y",19430,19615,19556,"",127,19615,186,60,"DAY","OEDEMA PERIPHERAL","LEG EDEMA",null,"OEDEMA PERIPHERAL",null,"HLT_0661",null,"HLGT_0137",null,"GENERAL DISORDERS AND ADMINISTRATION SITE CONDITIONS","GENERAL DISORDERS AND ADMINISTRATION SITE CONDITIONS",null,"MILD","N","N","N","N","N","N","N","N","REMOTE","","RECOVERED/RESOLVED",9,"Y","","","","","","","",""],[273,"CDISCPILOT01","703","01-703-1119","Xanomeline Low Dose",54,81,">80",3,"WHITE",1,"F","Y",19409,19522,19433,"",25,null,null,null,"","APPLICATION SITE IRRITATION","APPLICATION SITE IRRITATION",null,"APPLICATION SITE IRRITATION",null,"HLT_0061",null,"HLGT_0346",null,"GENERAL DISORDERS AND ADMINISTRATION SITE CONDITIONS","GENERAL DISORDERS AND ADMINISTRATION SITE CONDITIONS",null,"MODERATE","N","N","N","N","N","N","N","N","PROBABLE","","NOT RECOVERED/NOT RESOLVED",1,"Y","Y","Y","Y","","","","DERMATOLOGIC EVENTS","Y"],[274,"CDISCPILOT01","703","01-703-1119","Xanomeline Low Dose",54,81,">80",3,"WHITE",1,"F","Y",19409,19522,19433,"",25,null,null,null,"","APPLICATION SITE IRRITATION","APPLICATION SITE IRRITATION",null,"APPLICATION SITE IRRITATION",null,"HLT_0061",null,"HLGT_0346",null,"GENERAL DISORDERS AND ADMINISTRATION SITE CONDITIONS","GENERAL DISORDERS AND ADMINISTRATION SITE CONDITIONS",null,"SEVERE","N","N","N","N","N","N","N","N","PROBABLE","","NOT RECOVERED/NOT RESOLVED",2,"Y","","","","","","","DERMATOLOGIC EVENTS",""],[275,"CDISCPILOT01","703","01-703-1119","Xanomeline Low Dose",54,81,">80",3,"WHITE",1,"F","Y",19409,19522,19482,"",74,null,null,null,"","PRURITUS","ITCHING",null,"PRURITUS",null,"HLT_0778",null,"HLGT_0695",null,"SKIN AND SUBCUTANEOUS TISSUE DISORDERS","SKIN AND SUBCUTANEOUS TISSUE DISORDERS",null,"MODERATE","N","N","N","N","N","N","N","N","PROBABLE","","NOT RECOVERED/NOT RESOLVED",3,"Y","","Y","Y","","","","DERMATOLOGIC EVENTS",""],[276,"CDISCPILOT01","703","01-703-1119","Xanomeline Low Dose",54,81,">80",3,"WHITE",1,"F","Y",19409,19522,19482,"",74,null,null,null,"","PRURITUS","ITCHING",null,"PRURITUS",null,"HLT_0778",null,"HLGT_0695",null,"SKIN AND SUBCUTANEOUS TISSUE DISORDERS","SKIN AND SUBCUTANEOUS TISSUE DISORDERS",null,"SEVERE","N","N","N","N","N","N","N","N","PROBABLE","","NOT RECOVERED/NOT RESOLVED",4,"Y","","","","","","","DERMATOLOGIC EVENTS",""],[277,"CDISCPILOT01","703","01-703-1175","Placebo",0,75,"65-80",2,"WHITE",1,"M","Y",19712,19718,19710,"",-2,null,null,null,"","ATRIOVENTRICULAR BLOCK SECOND DEGREE","HEART BLOCK SECOND DEGREE",null,"ATRIOVENTRICULAR BLOCK SECOND DEGREE",null,"HLT_0415",null,"HLGT_0086",null,"CARDIAC DISORDERS","CARDIAC DISORDERS",null,"SEVERE","N","N","N","N","N","N","N","N","NONE","","NOT RECOVERED/NOT RESOLVED",1,"","","","","","","","",""],[278,"CDISCPILOT01","703","01-703-1182","Xanomeline Low Dose",54,84,">80",3,"WHITE",1,"M","Y",19648,19703,19662,"",15,null,null,null,"","APPLICATION SITE ERYTHEMA","APPLICATION SITE REDNESS",null,"APPLICATION SITE ERYTHEMA",null,"HLT_0617",null,"HLGT_0152",null,"GENERAL DISORDERS AND ADMINISTRATION SITE CONDITIONS","GENERAL DISORDERS AND ADMINISTRATION SITE CONDITIONS",null,"MILD","N","N","N","N","N","N","N","N","POSSIBLE","","NOT RECOVERED/NOT RESOLVED",1,"Y","Y","Y","Y","","","","DERMATOLOGIC EVENTS","Y"],[279,"CDISCPILOT01","703","01-703-1182","Xanomeline Low Dose",54,84,">80",3,"WHITE",1,"M","Y",19648,19703,19662,"",15,null,null,null,"","APPLICATION SITE ERYTHEMA","APPLICATION SITE REDNESS",null,"APPLICATION SITE ERYTHEMA",null,"HLT_0617",null,"HLGT_0152",null,"GENERAL DISORDERS AND ADMINISTRATION SITE CONDITIONS","GENERAL DISORDERS AND ADMINISTRATION SITE CONDITIONS",null,"MODERATE","N","N","N","N","N","N","N","N","POSSIBLE","","NOT RECOVERED/NOT RESOLVED",2,"Y","","","","","","","DERMATOLOGIC EVENTS",""],[280,"CDISCPILOT01","703","01-703-1182","Xanomeline Low Dose",54,84,">80",3,"WHITE",1,"M","Y",19648,19703,19684,"",37,null,null,null,"","SOMNOLENCE","DROWSINESS",null,"SOMNOLENCE",null,"HLT_0160",null,"HLGT_0254",null,"NERVOUS SYSTEM DISORDERS","NERVOUS SYSTEM DISORDERS",null,"MILD","N","N","N","N","N","N","N","N","REMOTE","","NOT RECOVERED/NOT RESOLVED",3,"Y","","Y","Y","","","","",""],[281,"CDISCPILOT01","703","01-703-1182","Xanomeline Low Dose",54,84,">80",3,"WHITE",1,"M","Y",19648,19703,19684,"",37,null,null,null,"","SOMNOLENCE","DROWSINESS",null,"SOMNOLENCE",null,"HLT_0160",null,"HLGT_0254",null,"NERVOUS SYSTEM DISORDERS","NERVOUS SYSTEM DISORDERS",null,"MODERATE","N","N","N","N","N","N","N","N","REMOTE","","NOT RECOVERED/NOT RESOLVED",4,"Y","","","","","","","",""],[282,"CDISCPILOT01","703","01-703-1210","Placebo",0,72,"65-80",2,"WHITE",1,"F","Y",19433,19607,19450,"",18,null,null,null,"","DISORIENTATION","DISORIENTATION",null,"DISORIENTATION",null,"HLT_0299",null,"HLGT_0307",null,"PSYCHIATRIC DISORDERS","PSYCHIATRIC DISORDERS",null,"MILD","N","N","N","N","N","N","N","N","REMOTE","","NOT RECOVERED/NOT RESOLVED",1,"Y","Y","Y","Y","","","","",""],[283,"CDISCPILOT01","703","01-703-1210","Placebo",0,72,"65-80",2,"WHITE",1,"F","Y",19433,19607,19482,"",50,null,null,null,"","DECREASED APPETITE","DECREASED APPETITE",null,"DECREASED APPETITE",null,"HLT_0574",null,"HLGT_0231",null,"METABOLISM AND NUTRITION DISORDERS","METABOLISM AND NUTRITION DISORDERS",null,"MILD","N","N","N","N","N","N","N","N","POSSIBLE","","NOT RECOVERED/NOT RESOLVED",2,"Y","","Y","Y","","","","",""],[284,"CDISCPILOT01","703","01-703-1210","Placebo",0,72,"65-80",2,"WHITE",1,"F","Y",19433,19607,19482,"",50,null,null,null,"","DECREASED APPETITE","DECREASED APPETITE",null,"DECREASED APPETITE",null,"HLT_0574",null,"HLGT_0231",null,"METABOLISM AND NUTRITION DISORDERS","METABOLISM AND NUTRITION DISORDERS",null,"MODERATE","N","N","N","N","N","N","N","N","POSSIBLE","","NOT RECOVERED/NOT RESOLVED",3,"Y","","","","","","","",""],[285,"CDISCPILOT01","703","01-703-1258","Xanomeline High Dose",81,78,"65-80",2,"WHITE",1,"F","Y",19194,19369,19216,"",23,19224,31,9,"DAY","UPPER RESPIRATORY TRACT INFECTION","UPPER RESPIRATORY INFECTION",null,"UPPER RESPIRATORY TRACT INFECTION",null,"HLT_0520",null,"HLGT_0489",null,"INFECTIONS AND INFESTATIONS","INFECTIONS AND INFESTATIONS",null,"MILD","N","N","N","N","N","N","N","N","NONE","","NOT RECOVERED/NOT RESOLVED",1,"Y","Y","Y","Y","","","","",""],[286,"CDISCPILOT01","703","01-703-1258","Xanomeline High Dose",81,78,"65-80",2,"WHITE",1,"F","Y",19194,19369,null,"",null,null,null,null,"","DIZZINESS","DIZZINESS",null,"DIZZINESS",null,"HLT_0619",null,"HLGT_0751",null,"NERVOUS SYSTEM DISORDERS","NERVOUS SYSTEM DISORDERS",null,"MODERATE","N","N","N","N","N","N","N","N","NONE","","NOT RECOVERED/NOT RESOLVED",2,"","","","","","","","",""],[287,"CDISCPILOT01","703","01-703-1258","Xanomeline High Dose",81,78,"65-80",2,"WHITE",1,"F","Y",19194,19369,19216,"",23,19224,31,9,"DAY","UPPER RESPIRATORY TRACT INFECTION","UPPER RESPIRATORY INFECTION",null,"UPPER RESPIRATORY TRACT INFECTION",null,"HLT_0520",null,"HLGT_0489",null,"INFECTIONS AND INFESTATIONS","INFECTIONS AND INFESTATIONS",null,"MILD","N","N","N","N","N","N","N","N","NONE","","RECOVERED/RESOLVED",3,"Y","","","","","","","",""],[288,"CDISCPILOT01","703","01-703-1258","Xanomeline High Dose",81,78,"65-80",2,"WHITE",1,"F","Y",19194,19369,19240,"",47,19383,190,144,"DAY","APPLICATION SITE DERMATITIS","APPLICATION SITE RASH",null,"APPLICATION SITE DERMATITIS",null,"HLT_0343",null,"HLGT_0241",null,"GENERAL DISORDERS AND ADMINISTRATION SITE CONDITIONS","GENERAL DISORDERS AND ADMINISTRATION SITE CONDITIONS",null,"MILD","N","N","N","N","N","N","N","N","PROBABLE","","NOT RECOVERED/NOT RESOLVED",4,"Y","","Y","Y","","","","DERMATOLOGIC EVENTS","Y"],[289,"CDISCPILOT01","703","01-703-1258","Xanomeline High Dose",81,78,"65-80",2,"WHITE",1,"F","Y",19194,19369,null,"",null,null,null,null,"","DIZZINESS","DIZZINESS",null,"DIZZINESS",null,"HLT_0619",null,"HLGT_0751",null,"NERVOUS SYSTEM DISORDERS","NERVOUS SYSTEM DISORDERS",null,"MILD","N","N","N","N","N","N","N","N","NONE","","NOT RECOVERED/NOT RESOLVED",5,"","","","","","","","",""],[290,"CDISCPILOT01","703","01-703-1258","Xanomeline High Dose",81,78,"65-80",2,"WHITE",1,"F","Y",19194,19369,19240,"",47,19383,190,144,"DAY","APPLICATION SITE DERMATITIS","APPLICATION SITE RASH",null,"APPLICATION SITE DERMATITIS",null,"HLT_0343",null,"HLGT_0241",null,"GENERAL DISORDERS AND ADMINISTRATION SITE CONDITIONS","GENERAL DISORDERS AND ADMINISTRATION SITE CONDITIONS",null,"MODERATE","N","N","N","N","N","N","N","N","PROBABLE","","NOT RECOVERED/NOT RESOLVED",6,"Y","","","","","","","DERMATOLOGIC EVENTS",""],[291,"CDISCPILOT01","703","01-703-1258","Xanomeline High Dose",81,78,"65-80",2,"WHITE",1,"F","Y",19194,19369,19240,"",47,19383,190,144,"DAY","APPLICATION SITE DERMATITIS","APPLICATION SITE RASH",null,"APPLICATION SITE DERMATITIS",null,"HLT_0343",null,"HLGT_0241",null,"GENERAL DISORDERS AND ADMINISTRATION SITE CONDITIONS","GENERAL DISORDERS AND ADMINISTRATION SITE CONDITIONS",null,"MILD","N","N","N","N","N","N","N","N","PROBABLE","","RECOVERED/RESOLVED",7,"Y","","","","","","","DERMATOLOGIC EVENTS",""],[292,"CDISCPILOT01","703","01-703-1295","Xanomeline High Dose",81,88,">80",3,"WHITE",1,"F","Y",19683,19832,19720,"",38,null,null,null,"","ARTHRITIS","ARTHRITIS",null,"ARTHRITIS",null,"HLT_0019",null,"HLGT_0587",null,"MUSCULOSKELETAL AND CONNECTIVE TISSUE DISORDERS","MUSCULOSKELETAL AND CONNECTIVE TISSUE DISORDERS",null,"MODERATE","N","N","N","N","N","N","N","N","NONE","","NOT RECOVERED/NOT RESOLVED",1,"Y","Y","Y","Y","","","","",""],[293,"CDISCPILOT01","703","01-703-1299","Placebo",0,81,">80",3,"WHITE",1,"F","Y",19248,19430,19263,"",16,19272,25,10,"DAY","UPPER RESPIRATORY TRACT INFECTION","UPPER RESPIRATORY INFECTION",null,"UPPER RESPIRATORY TRACT INFECTION",null,"HLT_0520",null,"HLGT_0489",null,"INFECTIONS AND INFESTATIONS","INFECTIONS AND INFESTATIONS",null,"MILD","N","N","N","N","N","N","N","N","NONE","","NOT RECOVERED/NOT RESOLVED",1,"Y","Y","Y","Y","","","","",""],[294,"CDISCPILOT01","703","01-703-1299","Placebo",0,81,">80",3,"WHITE",1,"F","Y",19248,19430,19263,"",16,19272,25,10,"DAY","UPPER RESPIRATORY TRACT INFECTION","UPPER RESPIRATORY INFECTION",null,"UPPER RESPIRATORY TRACT INFECTION",null,"HLT_0520",null,"HLGT_0489",null,"INFECTIONS AND INFESTATIONS","INFECTIONS AND INFESTATIONS",null,"MILD","N","N","N","N","N","N","N","N","NONE","","RECOVERED/RESOLVED",2,"Y","","","","","","","",""],[295,"CDISCPILOT01","703","01-703-1299","Placebo",0,81,">80",3,"WHITE",1,"F","Y",19248,19430,null,"",null,null,null,null,"","GLAUCOMA","GLAUCOMA",null,"GLAUCOMA",null,"HLT_0556",null,"HLGT_0734",null,"EYE DISORDERS","EYE DISORDERS",null,"MODERATE","N","N","N","N","N","N","N","N","NONE","","NOT RECOVERED/NOT RESOLVED",3,"","","","","","","","",""],[296,"CDISCPILOT01","703","01-703-1299","Placebo",0,81,">80",3,"WHITE",1,"F","Y",19248,19430,19418,"",171,null,null,null,"","HYPOTENSION","HYPOTENSION",null,"HYPOTENSION",null,"HLT_0761",null,"HLGT_0412",null,"VASCULAR DISORDERS","VASCULAR DISORDERS",null,"MILD","N","N","N","N","N","N","N","N","REMOTE","","NOT RECOVERED/NOT RESOLVED",4,"Y","","Y","Y","","","","",""],[297,"CDISCPILOT01","703","01-703-1299","Placebo",0,81,">80",3,"WHITE",1,"F","Y",19248,19430,19418,"",171,null,null,null,"","TACHYCARDIA","TACHYCARDIA",null,"TACHYCARDIA",null,"HLT_0082",null,"HLGT_0574",null,"CARDIAC DISORDERS","CARDIAC DISORDERS",null,"MILD","N","N","N","N","N","N","N","N","REMOTE","","NOT RECOVERED/NOT RESOLVED",5,"Y","","Y","Y","","","","",""],[298,"CDISCPILOT01","703","01-703-1299","Placebo",0,81,">80",3,"WHITE",1,"F","Y",19248,19430,19418,"",171,null,null,null,"","HYPOTENSION","HYPOTENSION",null,"HYPOTENSION",null,"HLT_0761",null,"HLGT_0412",null,"VASCULAR DISORDERS","VASCULAR DISORDERS",null,"MODERATE","N","N","N","N","N","N","N","N","REMOTE","","NOT RECOVERED/NOT RESOLVED",6,"Y","","","","","","","",""],[299,"CDISCPILOT01","703","01-703-1299","Placebo",0,81,">80",3,"WHITE",1,"F","Y",19248,19430,19418,"",171,null,null,null,"","TACHYCARDIA","TACHYCARDIA",null,"TACHYCARDIA",null,"HLT_0082",null,"HLGT_0574",null,"CARDIAC DISORDERS","CARDIAC DISORDERS",null,"MODERATE","N","N","N","N","N","N","N","N","REMOTE","","NOT RECOVERED/NOT RESOLVED",7,"Y","","","","","","","",""],[300,"CDISCPILOT01","703","01-703-1299","Placebo",0,81,">80",3,"WHITE",1,"F","Y",19248,19430,19430,"",183,null,null,null,"","MYOCARDIAL INFARCTION","MYOCARDIAL INFARCTION",null,"MYOCARDIAL INFARCTION",null,"HLT_0649",null,"HLGT_0688",null,"CARDIAC DISORDERS","CARDIAC DISORDERS",null,"MODERATE","N","N","N","N","N","N","N","N","REMOTE","","NOT RECOVERED/NOT RESOLVED",8,"Y","","","Y","","","","",""],[301,"CDISCPILOT01","703","01-703-1335","Xanomeline High Dose",81,67,"65-80",2,"BLACK OR AFRICAN AMERICAN",2,"F","Y",19799,19850,19797,"",-2,19812,14,16,"DAY","ATRIOVENTRICULAR BLOCK SECOND DEGREE","AV BLOCK SECOND DEGREE",null,"ATRIOVENTRICULAR BLOCK SECOND DEGREE",null,"HLT_0415",null,"HLGT_0086",null,"CARDIAC DISORDERS","CARDIAC DISORDERS",null,"MILD","N","N","N","N","N","N","N","N","NONE","","NOT RECOVERED/NOT RESOLVED",1,"","","","","","","","",""],[302,"CDISCPILOT01","703","01-703-1335","Xanomeline High Dose",81,67,"65-80",2,"BLACK OR AFRICAN AMERICAN",2,"F","Y",19799,19850,19797,"",-2,19812,14,16,"DAY","ATRIOVENTRICULAR BLOCK SECOND DEGREE","AV BLOCK SECOND DEGREE",null,"ATRIOVENTRICULAR BLOCK SECOND DEGREE",null,"HLT_0415",null,"HLGT_0086",null,"CARDIAC DISORDERS","CARDIAC DISORDERS",null,"MILD","N","N","N","N","N","N","N","N","NONE","","RECOVERED/RESOLVED",2,"","","","","","","","",""],[303,"CDISCPILOT01","703","01-703-1403","Xanomeline High Dose",81,67,"65-80",2,"WHITE",1,"M","Y",19339,19340,19339,"",1,19346,8,8,"DAY","WEIGHT DECREASED","WEIGHT LOSS",null,"WEIGHT DECREASED",null,"HLT_0158",null,"HLGT_0778",null,"INVESTIGATIONS","INVESTIGATIONS",null,"MODERATE","N","N","N","N","N","N","N","N","NONE","","NOT RECOVERED/NOT RESOLVED",1,"Y","Y","Y","Y","","","","",""],[304,"CDISCPILOT01","703","01-703-1403","Xanomeline High Dose",81,67,"65-80",2,"WHITE",1,"M","Y",19339,19340,19340,"",2,19341,3,2,"DAY","DIARRHOEA","DIARRHEA",null,"DIARRHOEA",null,"HLT_0148",null,"HLGT_0588",null,"GASTROINTESTINAL DISORDERS","GASTROINTESTINAL DISORDERS",null,"MODERATE","N","N","N","N","N","N","N","N","PROBABLE","","RECOVERED/RESOLVED",2,"Y","","Y","Y","","","","",""],[305,"CDISCPILOT01","703","01-703-1403","Xanomeline High Dose",81,67,"65-80",2,"WHITE",1,"M","Y",19339,19340,19340,"",2,19341,3,2,"DAY","VOMITING","VOMITING",null,"VOMITING",null,"HLT_0016",null,"HLGT_0350",null,"GASTROINTESTINAL DISORDERS","GASTROINTESTINAL DISORDERS",null,"MODERATE","N","N","N","N","N","N","N","N","PROBABLE","","RECOVERED/RESOLVED",3,"Y","","","Y","","","","",""],[306,"CDISCPILOT01","703","01-703-1403","Xanomeline High Dose",81,67,"65-80",2,"WHITE",1,"M","Y",19339,19340,19342,"",4,19343,5,2,"DAY","CHEST DISCOMFORT","CHEST TIGHTNESS",null,"CHEST DISCOMFORT",null,"HLT_0593",null,"HLGT_0441",null,"GENERAL DISORDERS AND ADMINISTRATION SITE CONDITIONS","GENERAL DISORDERS AND ADMINISTRATION SITE CONDITIONS",null,"MILD","N","N","N","N","N","N","N","N","PROBABLE","","RECOVERED/RESOLVED",4,"Y","","Y","Y","","","","",""],[307,"CDISCPILOT01","703","01-703-1403","Xanomeline High Dose",81,67,"65-80",2,"WHITE",1,"M","Y",19339,19340,19339,"",1,19346,8,8,"DAY","WEIGHT DECREASED","WEIGHT LOSS",null,"WEIGHT DECREASED",null,"HLT_0158",null,"HLGT_0778",null,"INVESTIGATIONS","INVESTIGATIONS",null,"MODERATE","N","N","N","N","N","N","N","N","NONE","","RECOVERED/RESOLVED",5,"Y","","","","","","","",""],[308,"CDISCPILOT01","703","01-703-1439","Xanomeline High Dose",81,76,"65-80",2,"WHITE",1,"F","Y",19794,19977,19837,"",44,null,null,null,"","APPLICATION SITE IRRITATION","APPLICATION SITE IRRITATION",null,"APPLICATION SITE IRRITATION",null,"HLT_0061",null,"HLGT_0346",null,"GENERAL DISORDERS AND ADMINISTRATION SITE CONDITIONS","GENERAL DISORDERS AND ADMINISTRATION SITE CONDITIONS",null,"MILD","N","N","N","N","N","N","N","N","PROBABLE","","NOT RECOVERED/NOT RESOLVED",1,"Y","Y","Y","Y","","","","DERMATOLOGIC EVENTS","Y"],[309,"CDISCPILOT01","703","01-703-1439","Xanomeline High Dose",81,76,"65-80",2,"WHITE",1,"F","Y",19794,19977,19837,"",44,null,null,null,"","APPLICATION SITE IRRITATION","APPLICATION SITE IRRITATION",null,"APPLICATION SITE IRRITATION",null,"HLT_0061",null,"HLGT_0346",null,"GENERAL DISORDERS AND ADMINISTRATION SITE CONDITIONS","GENERAL DISORDERS AND ADMINISTRATION SITE CONDITIONS",null,"MODERATE","N","N","N","N","N","N","N","N","PROBABLE","","NOT RECOVERED/NOT RESOLVED",2,"Y","","","","","","","DERMATOLOGIC EVENTS",""],[310,"CDISCPILOT01","704","01-704-1008","Xanomeline High Dose",81,76,"65-80",2,"WHITE",1,"F","Y",19371,19410,19388,"",18,null,null,null,"","HYPERHIDROSIS","SWEATING INCREASED",null,"HYPERHIDROSIS",null,"HLT_0587",null,"HLGT_0005",null,"SKIN AND SUBCUTANEOUS TISSUE DISORDERS","SKIN AND SUBCUTANEOUS TISSUE DISORDERS",null,"MILD","N","N","N","N","N","N","N","N","POSSIBLE","","NOT RECOVERED/NOT RESOLVED",1,"Y","Y","Y","Y","","","","",""],[311,"CDISCPILOT01","704","01-704-1008","Xanomeline High Dose",81,76,"65-80",2,"WHITE",1,"F","Y",19371,19410,19410,"",40,19410,40,1,"DAY","TRANSIENT ISCHAEMIC ATTACK","TRANSIENT ISCHEMIC ATTACKS",null,"TRANSIENT ISCHAEMIC ATTACK",null,"HLT_0041",null,"HLGT_0433",null,"NERVOUS SYSTEM DISORDERS","NERVOUS SYSTEM DISORDERS",null,"SEVERE","N","N","N","N","N","Y","N","N","NONE","","RECOVERED/RESOLVED",2,"Y","","Y","Y","","","","",""],[312,"CDISCPILOT01","704","01-704-1008","Xanomeline High Dose",81,76,"65-80",2,"WHITE",1,"F","Y",19371,19410,19414,"",44,null,null,null,"","SINUS BRADYCARDIA","SINUS BRADYCARDIA",null,"SINUS BRADYCARDIA",null,"HLT_0644",null,"HLGT_0500",null,"CARDIAC DISORDERS","CARDIAC DISORDERS",null,"MODERATE","N","N","N","N","N","N","N","N","NONE","","NOT RECOVERED/NOT RESOLVED",3,"Y","","Y","Y","","","","",""],[313,"CDISCPILOT01","704","01-704-1009","Xanomeline Low Dose",54,83,">80",3,"WHITE",1,"M","Y",19597,19626,19606,"",10,null,null,null,"","FATIGUE","FATIGUE",null,"FATIGUE",null,"HLT_0043",null,"HLGT_0181",null,"GENERAL DISORDERS AND ADMINISTRATION SITE CONDITIONS","GENERAL DISORDERS AND ADMINISTRATION SITE CONDITIONS",null,"MILD","N","N","N","N","N","N","N","N","REMOTE","","NOT RECOVERED/NOT RESOLVED",1,"Y","Y","Y","Y","","","","",""],[314,"CDISCPILOT01","704","01-704-1009","Xanomeline Low Dose",54,83,">80",3,"WHITE",1,"M","Y",19597,19626,19606,"",10,19628,32,23,"DAY","MALAISE","MALAISE",null,"MALAISE",null,"HLT_0456",null,"HLGT_0178",null,"GENERAL DISORDERS AND ADMINISTRATION SITE CONDITIONS","GENERAL DISORDERS AND ADMINISTRATION SITE CONDITIONS",null,"MILD","N","N","N","N","N","N","N","N","POSSIBLE","","NOT RECOVERED/NOT RESOLVED",2,"Y","","","Y","","","","",""],[315,"CDISCPILOT01","704","01-704-1009","Xanomeline Low Dose",54,83,">80",3,"WHITE",1,"M","Y",19597,19626,19615,"",19,null,null,null,"","RASH","RASH",null,"RASH",null,"HLT_0762",null,"HLGT_0198",null,"SKIN AND SUBCUTANEOUS TISSUE DISORDERS","SKIN AND SUBCUTANEOUS TISSUE DISORDERS",null,"MILD","N","N","N","N","N","N","N","N","POSSIBLE","","NOT RECOVERED/NOT RESOLVED",3,"Y","","Y","Y","","","","DERMATOLOGIC EVENTS","Y"],[316,"CDISCPILOT01","704","01-704-1009","Xanomeline Low Dose",54,83,">80",3,"WHITE",1,"M","Y",19597,19626,19606,"",10,19628,32,23,"DAY","MALAISE","MALAISE",null,"MALAISE",null,"HLT_0456",null,"HLGT_0178",null,"GENERAL DISORDERS AND ADMINISTRATION SITE CONDITIONS","GENERAL DISORDERS AND ADMINISTRATION SITE CONDITIONS",null,"MILD","N","N","N","N","N","N","N","N","POSSIBLE","","RECOVERED/RESOLVED",4,"Y","","","","","","","",""],[317,"CDISCPILOT01","704","01-704-1009","Xanomeline Low Dose",54,83,">80",3,"WHITE",1,"M","Y",19597,19626,19618,"",22,null,null,null,"","DIZZINESS","DIZZINESS",null,"DIZZINESS",null,"HLT_0619",null,"HLGT_0751",null,"NERVOUS SYSTEM DISORDERS","NERVOUS SYSTEM DISORDERS",null,"MILD","N","N","N","N","N","N","N","N","REMOTE","","NOT RECOVERED/NOT RESOLVED",5,"Y","","Y","Y","","","","",""],[318,"CDISCPILOT01","704","01-704-1009","Xanomeline Low Dose",54,83,">80",3,"WHITE",1,"M","Y",19597,19626,19623,"",27,19624,28,2,"DAY","NAUSEA","NAUSEA",null,"NAUSEA",null,"HLT_0742",null,"HLGT_0326",null,"GASTROINTESTINAL DISORDERS","GASTROINTESTINAL DISORDERS",null,"MILD","N","N","N","N","N","N","N","N","POSSIBLE","","RECOVERED/RESOLVED",6,"Y","","Y","Y","","","","",""],[319,"CDISCPILOT01","704","01-704-1010","Placebo",0,80,"65-80",2,"WHITE",1,"M","Y",19775,19912,19781,"",7,19788,14,8,"DAY","CYSTITIS","BLADDER INFECTION",null,"CYSTITIS",null,"HLT_0739",null,"HLGT_0129",null,"INFECTIONS AND INFESTATIONS","INFECTIONS AND INFESTATIONS",null,"MILD","N","N","N","N","N","N","N","N","NONE","","RECOVERED/RESOLVED",1,"Y","Y","Y","Y","","","","",""],[320,"CDISCPILOT01","704","01-704-1010","Placebo",0,80,"65-80",2,"WHITE",1,"M","Y",19775,19912,19909,"",135,19910,136,2,"DAY","VOMITING","VOMITING",null,"VOMITING",null,"HLT_0016",null,"HLGT_0350",null,"GASTROINTESTINAL DISORDERS","GASTROINTESTINAL DISORDERS",null,"MILD","N","N","N","N","N","N","N","N","NONE","","RECOVERED/RESOLVED",2,"Y","","Y","Y","","","","",""],[321,"CDISCPILOT01","704","01-704-1010","Placebo",0,80,"65-80",2,"WHITE",1,"M","Y",19775,19912,19909,"",135,19910,136,2,"DAY","DIARRHOEA","DIARRHEA",null,"DIARRHOEA",null,"HLT_0148",null,"HLGT_0588",null,"GASTROINTESTINAL DISORDERS","GASTROINTESTINAL DISORDERS",null,"MILD","N","N","N","N","N","N","N","N","NONE","","RECOVERED/RESOLVED",3,"Y","","","Y","","","","",""],[322,"CDISCPILOT01","704","01-704-1010","Placebo",0,80,"65-80",2,"WHITE",1,"M","Y",19775,19912,19910,"",136,null,null,null,"","EXCORIATION","ABRASION NOS",null,"EXCORIATION",null,"HLT_0738",null,"HLGT_0511",null,"INJURY, POISONING AND PROCEDURAL COMPLICATIONS","INJURY, POISONING AND PROCEDURAL COMPLICATIONS",null,"MILD","N","N","N","N","N","N","N","N","NONE","","NOT RECOVERED/NOT RESOLVED",4,"Y","","Y","Y","","","","",""],[323,"CDISCPILOT01","704","01-704-1010","Placebo",0,80,"65-80",2,"WHITE",1,"M","Y",19775,19912,19910,"",136,null,null,null,"","SKIN LACERATION","SKIN TEAR",null,"SKIN LACERATION",null,"HLT_0075",null,"HLGT_0118",null,"INJURY, POISONING AND PROCEDURAL COMPLICATIONS","INJURY, POISONING AND PROCEDURAL COMPLICATIONS",null,"MILD","N","N","N","N","N","N","N","N","NONE","","NOT RECOVERED/NOT RESOLVED",5,"Y","","","Y","","","","",""],[324,"CDISCPILOT01","704","01-704-1010","Placebo",0,80,"65-80",2,"WHITE",1,"M","Y",19775,19912,19910,"",136,null,null,null,"","ARTHRALGIA","KNEE PAIN",null,"ARTHRALGIA",null,"HLT_0375",null,"HLGT_0610",null,"MUSCULOSKELETAL AND CONNECTIVE TISSUE DISORDERS","MUSCULOSKELETAL AND CONNECTIVE TISSUE DISORDERS",null,"MILD","N","N","N","N","N","N","N","N","NONE","","NOT RECOVERED/NOT RESOLVED",6,"Y","","Y","Y","","","","",""],[325,"CDISCPILOT01","704","01-704-1010","Placebo",0,80,"65-80",2,"WHITE",1,"M","Y",19775,19912,19910,"",136,null,null,null,"","CONTUSION","BRUISE OF HEAD",null,"CONTUSION",null,"HLT_0713",null,"HLGT_0381",null,"INJURY, POISONING AND PROCEDURAL COMPLICATIONS","INJURY, POISONING AND PROCEDURAL COMPLICATIONS",null,"MILD","N","N","N","N","N","N","N","N","NONE","","NOT RECOVERED/NOT RESOLVED",7,"Y","","","Y","","","","",""],[326,"CDISCPILOT01","704","01-704-1017","Xanomeline High Dose",81,77,"65-80",2,"WHITE",1,"M","Y",19637,19680,19650,"",14,null,null,null,"","MYOCARDIAL INFARCTION","MYOCARDIAL INFARCTION",null,"MYOCARDIAL INFARCTION",null,"HLT_0649",null,"HLGT_0688",null,"CARDIAC DISORDERS","CARDIAC DISORDERS",null,"MILD","N","N","N","N","N","N","N","N","NONE","","NOT RECOVERED/NOT RESOLVED",1,"Y","Y","Y","Y","","","","",""],[327,"CDISCPILOT01","704","01-704-1017","Xanomeline High Dose",81,77,"65-80",2,"WHITE",1,"M","Y",19637,19680,19650,"",14,null,null,null,"","VENTRICULAR SEPTAL DEFECT","VENTRICULAR SEPTAL DEFECT",null,"VENTRICULAR SEPTAL DEFECT",null,"HLT_0589",null,"HLGT_0747",null,"CONGENITAL, FAMILIAL AND GENETIC DISORDERS","CONGENITAL, FAMILIAL AND GENETIC DISORDERS",null,"MILD","N","N","N","N","N","N","N","N","NONE","","NOT RECOVERED/NOT RESOLVED",2,"Y","","Y","Y","","","","",""],[328,"CDISCPILOT01","704","01-704-1017","Xanomeline High Dose",81,77,"65-80",2,"WHITE",1,"M","Y",19637,19680,19663,"",27,19670,34,8,"DAY","INFLUENZA","FLU",null,"INFLUENZA",null,"HLT_0125",null,"HLGT_0081",null,"INFECTIONS AND INFESTATIONS","INFECTIONS AND INFESTATIONS",null,"MILD","N","N","N","N","N","N","N","N","NONE","","RECOVERED/RESOLVED",3,"Y","","Y","Y","","","","",""],[329,"CDISCPILOT01","704","01-704-1017","Xanomeline High Dose",81,77,"65-80",2,"WHITE",1,"M","Y",19637,19680,19663,"",27,null,null,null,"","CARDIAC DISORDER","CARDIAC DISORDER",null,"CARDIAC DISORDER",null,"HLT_0507",null,"HLGT_0126",null,"CARDIAC DISORDERS","CARDIAC DISORDERS",null,"MILD","N","N","N","N","N","N","N","N","NONE","","NOT RECOVERED/NOT RESOLVED",4,"Y","","","Y","","","","",""],[330,"CDISCPILOT01","704","01-704-1017","Xanomeline High Dose",81,77,"65-80",2,"WHITE",1,"M","Y",19637,19680,19667,"",31,19684,48,18,"DAY","RASH","RASH",null,"RASH",null,"HLT_0762",null,"HLGT_0198",null,"SKIN AND SUBCUTANEOUS TISSUE DISORDERS","SKIN AND SUBCUTANEOUS TISSUE DISORDERS",null,"MILD","N","N","N","N","N","N","N","N","PROBABLE","","NOT RECOVERED/NOT RESOLVED",5,"Y","","Y","Y","","","","DERMATOLOGIC EVENTS","Y"],[331,"CDISCPILOT01","704","01-704-1017","Xanomeline High Dose",81,77,"65-80",2,"WHITE",1,"M","Y",19637,19680,19667,"",31,19684,48,18,"DAY","PRURITUS","ITCHING",null,"PRURITUS",null,"HLT_0778",null,"HLGT_0695",null,"SKIN AND SUBCUTANEOUS TISSUE DISORDERS","SKIN AND SUBCUTANEOUS TISSUE DISORDERS",null,"MILD","N","N","N","N","N","N","N","N","PROBABLE","","NOT RECOVERED/NOT RESOLVED",6,"Y","","","Y","","","","DERMATOLOGIC EVENTS",""],[332,"CDISCPILOT01","704","01-704-1017","Xanomeline High Dose",81,77,"65-80",2,"WHITE",1,"M","Y",19637,19680,19667,"",31,19684,48,18,"DAY","RASH","RASH",null,"RASH",null,"HLT_0762",null,"HLGT_0198",null,"SKIN AND SUBCUTANEOUS TISSUE DISORDERS","SKIN AND SUBCUTANEOUS TISSUE DISORDERS",null,"MILD","N","N","N","N","N","N","N","N","PROBABLE","","RECOVERED/RESOLVED",7,"Y","","","","","","","DERMATOLOGIC EVENTS",""],[333,"CDISCPILOT01","704","01-704-1017","Xanomeline High Dose",81,77,"65-80",2,"WHITE",1,"M","Y",19637,19680,19667,"",31,19684,48,18,"DAY","PRURITUS","ITCHING",null,"PRURITUS",null,"HLT_0778",null,"HLGT_0695",null,"SKIN AND SUBCUTANEOUS TISSUE DISORDERS","SKIN AND SUBCUTANEOUS TISSUE DISORDERS",null,"MILD","N","N","N","N","N","N","N","N","PROBABLE","","RECOVERED/RESOLVED",8,"Y","","","","","","","DERMATOLOGIC EVENTS",""],[334,"CDISCPILOT01","704","01-704-1025","Xanomeline Low Dose",54,81,">80",3,"WHITE",1,"F","Y",19628,19655,19629,"",2,19631,4,3,"DAY","VERTIGO","VERTIGO",null,"VERTIGO",null,"HLT_0255",null,"HLGT_0147",null,"EAR AND LABYRINTH DISORDERS","EAR AND LABYRINTH DISORDERS",null,"MODERATE","N","N","N","N","N","N","N","N","POSSIBLE","","RECOVERED/RESOLVED",1,"Y","Y","Y","Y","","","","",""],[335,"CDISCPILOT01","704","01-704-1025","Xanomeline Low Dose",54,81,">80",3,"WHITE",1,"F","Y",19628,19655,19629,"",2,19631,4,3,"DAY","PALPITATIONS","PALPITATIONS",null,"PALPITATIONS",null,"HLT_0493",null,"HLGT_0593",null,"CARDIAC DISORDERS","CARDIAC DISORDERS",null,"MODERATE","N","N","N","N","N","N","N","N","REMOTE","","RECOVERED/RESOLVED",2,"Y","","Y","Y","","","","",""],[336,"CDISCPILOT01","704","01-704-1025","Xanomeline Low Dose",54,81,">80",3,"WHITE",1,"F","Y",19628,19655,19642,"",15,19656,29,15,"DAY","ELECTROCARDIOGRAM ST SEGMENT DEPRESSION","ST SEGMENT DEPRESSED",null,"ELECTROCARDIOGRAM ST SEGMENT DEPRESSION",null,"HLT_0610",null,"HLGT_0220",null,"INVESTIGATIONS","INVESTIGATIONS",null,"MILD","N","N","N","N","N","N","N","N","POSSIBLE","","NOT RECOVERED/NOT RESOLVED",3,"Y","","Y","Y","","","","",""],[337,"CDISCPILOT01","704","01-704-1025","Xanomeline Low Dose",54,81,">80",3,"WHITE",1,"F","Y",19628,19655,19656,"",29,19691,64,36,"DAY","WOLFF-PARKINSON-WHITE SYNDROME","WOLFF-PARKINSON-WHITE SYNDROME",null,"WOLFF-PARKINSON-WHITE SYNDROME",null,"HLT_0612",null,"HLGT_0218",null,"CARDIAC DISORDERS","CARDIAC DISORDERS",null,"MILD","N","N","N","N","N","N","N","N","POSSIBLE","","NOT RECOVERED/NOT RESOLVED",4,"Y","","","Y","","","","",""],[338,"CDISCPILOT01","704","01-704-1025","Xanomeline Low Dose",54,81,">80",3,"WHITE",1,"F","Y",19628,19655,19642,"",15,19656,29,15,"DAY","ELECTROCARDIOGRAM ST SEGMENT DEPRESSION","ST SEGMENT DEPRESSED",null,"ELECTROCARDIOGRAM ST SEGMENT DEPRESSION",null,"HLT_0610",null,"HLGT_0220",null,"INVESTIGATIONS","INVESTIGATIONS",null,"MILD","N","N","N","N","N","N","N","N","POSSIBLE","","RECOVERED/RESOLVED",5,"Y","","","","","","","",""],[339,"CDISCPILOT01","704","01-704-1025","Xanomeline Low Dose",54,81,">80",3,"WHITE",1,"F","Y",19628,19655,19656,"",29,19691,64,36,"DAY","WOLFF-PARKINSON-WHITE SYNDROME","WOLFF-PARKINSON-WHITE SYNDROME",null,"WOLFF-PARKINSON-WHITE SYNDROME",null,"HLT_0612",null,"HLGT_0218",null,"CARDIAC DISORDERS","CARDIAC DISORDERS",null,"MILD","N","N","N","N","N","N","N","N","POSSIBLE","","RECOVERED/RESOLVED",6,"Y","","","","","","","",""],[340,"CDISCPILOT01","704","01-704-1065","Xanomeline High Dose",81,75,"65-80",2,"WHITE",1,"M","Y",19655,19714,19657,"",3,null,null,null,"","ABDOMINAL DISCOMFORT","ABDOMINAL DISCOMFORT",null,"ABDOMINAL DISCOMFORT",null,"HLT_0012",null,"HLGT_0332",null,"GASTROINTESTINAL DISORDERS","GASTROINTESTINAL DISORDERS",null,"MILD","N","N","N","N","N","N","N","N","REMOTE","","NOT RECOVERED/NOT RESOLVED",1,"Y","Y","Y","Y","","","","",""],[341,"CDISCPILOT01","704","01-704-1065","Xanomeline High Dose",81,75,"65-80",2,"WHITE",1,"M","Y",19655,19714,19658,"",4,null,null,null,"","RASH","RASH",null,"RASH",null,"HLT_0762",null,"HLGT_0198",null,"SKIN AND SUBCUTANEOUS TISSUE DISORDERS","SKIN AND SUBCUTANEOUS TISSUE DISORDERS",null,"MILD","N","N","N","N","N","N","N","N","PROBABLE","","NOT RECOVERED/NOT RESOLVED",2,"Y","","Y","Y","","","","DERMATOLOGIC EVENTS","Y"],[342,"CDISCPILOT01","704","01-704-1065","Xanomeline High Dose",81,75,"65-80",2,"WHITE",1,"M","Y",19655,19714,19658,"",4,null,null,null,"","APPLICATION SITE PRURITUS","APPLICATION SITE ITCHING",null,"APPLICATION SITE PRURITUS",null,"HLT_0317",null,"HLGT_0338",null,"GENERAL DISORDERS AND ADMINISTRATION SITE CONDITIONS","GENERAL DISORDERS AND ADMINISTRATION SITE CONDITIONS",null,"MODERATE","N","N","N","N","N","N","N","N","PROBABLE","","NOT RECOVERED/NOT RESOLVED",3,"Y","","Y","Y","","","","DERMATOLOGIC EVENTS",""],[343,"CDISCPILOT01","704","01-704-1065","Xanomeline High Dose",81,75,"65-80",2,"WHITE",1,"M","Y",19655,19714,19671,"",17,null,null,null,"","APPLICATION SITE IRRITATION","APPLICATION SITE BURNING",null,"APPLICATION SITE IRRITATION",null,"HLT_0061",null,"HLGT_0346",null,"GENERAL DISORDERS AND ADMINISTRATION SITE CONDITIONS","GENERAL DISORDERS AND ADMINISTRATION SITE CONDITIONS",null,"MILD","N","N","N","N","N","N","N","N","PROBABLE","","NOT RECOVERED/NOT RESOLVED",4,"Y","","","Y","","","","DERMATOLOGIC EVENTS",""],[344,"CDISCPILOT01","704","01-704-1065","Xanomeline High Dose",81,75,"65-80",2,"WHITE",1,"M","Y",19655,19714,19671,"",17,null,null,null,"","MALAISE","MALAISE",null,"MALAISE",null,"HLT_0456",null,"HLGT_0178",null,"GENERAL DISORDERS AND ADMINISTRATION SITE CONDITIONS","GENERAL DISORDERS AND ADMINISTRATION SITE CONDITIONS",null,"MILD","N","N","N","N","N","N","N","N","POSSIBLE","","NOT RECOVERED/NOT RESOLVED",5,"Y","","","Y","","","","",""],[345,"CDISCPILOT01","704","01-704-1065","Xanomeline High Dose",81,75,"65-80",2,"WHITE",1,"M","Y",19655,19714,19671,"",17,null,null,null,"","HYPERHIDROSIS","PERSPIRATION EXCESSIVE",null,"HYPERHIDROSIS",null,"HLT_0587",null,"HLGT_0005",null,"SKIN AND SUBCUTANEOUS TISSUE DISORDERS","SKIN AND SUBCUTANEOUS TISSUE DISORDERS",null,"MILD","N","N","N","N","N","N","N","N","POSSIBLE","","NOT RECOVERED/NOT RESOLVED",6,"Y","","","Y","","","","",""],[346,"CDISCPILOT01","704","01-704-1065","Xanomeline High Dose",81,75,"65-80",2,"WHITE",1,"M","Y",19655,19714,19679,"",25,19679,25,1,"DAY","CHILLS","CHILLS",null,"CHILLS",null,"HLT_0586",null,"HLGT_0161",null,"GENERAL DISORDERS AND ADMINISTRATION SITE CONDITIONS","GENERAL DISORDERS AND ADMINISTRATION SITE CONDITIONS",null,"MILD","N","N","N","N","N","N","N","N","REMOTE","","RECOVERED/RESOLVED",7,"Y","","","Y","","","","",""],[347,"CDISCPILOT01","704","01-704-1065","Xanomeline High Dose",81,75,"65-80",2,"WHITE",1,"M","Y",19655,19714,19679,"",25,19679,25,1,"DAY","DIZZINESS","DIZZINESS",null,"DIZZINESS",null,"HLT_0619",null,"HLGT_0751",null,"NERVOUS SYSTEM DISORDERS","NERVOUS SYSTEM DISORDERS",null,"MILD","N","N","N","N","N","N","N","N","REMOTE","","RECOVERED/RESOLVED",8,"Y","","Y","Y","","","","",""],[348,"CDISCPILOT01","704","01-704-1065","Xanomeline High Dose",81,75,"65-80",2,"WHITE",1,"M","Y",19655,19714,19707,"",53,19707,53,1,"DAY","DIARRHOEA","DIARRHEA",null,"DIARRHOEA",null,"HLT_0148",null,"HLGT_0588",null,"GASTROINTESTINAL DISORDERS","GASTROINTESTINAL DISORDERS",null,"MILD","N","N","N","N","N","N","N","N","REMOTE","","RECOVERED/RESOLVED",9,"Y","","","Y","","","","",""],[349,"CDISCPILOT01","704","01-704-1065","Xanomeline High Dose",81,75,"65-80",2,"WHITE",1,"M","Y",19655,19714,19716,"",62,null,null,null,"","SINUS BRADYCARDIA","BRADYCARDIA SINUS",null,"SINUS BRADYCARDIA",null,"HLT_0644",null,"HLGT_0500",null,"CARDIAC DISORDERS","CARDIAC DISORDERS",null,"MILD","N","N","N","N","N","N","N","N","NONE","","NOT RECOVERED/NOT RESOLVED",10,"Y","","Y","Y","","","","",""],[350,"CDISCPILOT01","704","01-704-1074","Xanomeline High Dose",81,80,"65-80",2,"WHITE",1,"F","Y",19745,19802,19745,"",1,null,null,null,"","PRURITUS","ITCHING",null,"PRURITUS",null,"HLT_0778",null,"HLGT_0695",null,"SKIN AND SUBCUTANEOUS TISSUE DISORDERS","SKIN AND SUBCUTANEOUS TISSUE DISORDERS",null,"MILD","N","N","N","N","N","N","N","N","PROBABLE","","NOT RECOVERED/NOT RESOLVED",1,"Y","Y","Y","Y","","","","DERMATOLOGIC EVENTS","Y"],[351,"CDISCPILOT01","704","01-704-1074","Xanomeline High Dose",81,80,"65-80",2,"WHITE",1,"F","Y",19745,19802,19763,"",19,null,null,null,"","ERYTHEMA","SKIN RED",null,"ERYTHEMA",null,"HLT_0284",null,"HLGT_0192",null,"SKIN AND SUBCUTANEOUS TISSUE DISORDERS","SKIN AND SUBCUTANEOUS TISSUE DISORDERS",null,"MILD","N","N","N","N","N","N","N","N","PROBABLE","","NOT RECOVERED/NOT RESOLVED",2,"Y","","","Y","","","","DERMATOLOGIC EVENTS",""],[352,"CDISCPILOT01","704","01-704-1093","Xanomeline High Dose",81,79,"65-80",2,"WHITE",1,"M","Y",19432,19526,19447,"",16,19461,30,15,"DAY","BLOOD GLUCOSE INCREASED","GLUCOSE INCREASED",null,"BLOOD GLUCOSE INCREASED",null,"HLT_0450",null,"HLGT_0188",null,"INVESTIGATIONS","INVESTIGATIONS",null,"MILD","N","N","N","N","N","N","N","N","NONE","","NOT RECOVERED/NOT RESOLVED",1,"Y","Y","Y","Y","","","","",""],[353,"CDISCPILOT01","704","01-704-1093","Xanomeline High Dose",81,79,"65-80",2,"WHITE",1,"M","Y",19432,19526,19447,"",16,19461,30,15,"DAY","BLOOD GLUCOSE INCREASED","GLUCOSE INCREASED",null,"BLOOD GLUCOSE INCREASED",null,"HLT_0450",null,"HLGT_0188",null,"INVESTIGATIONS","INVESTIGATIONS",null,"MILD","N","N","N","N","N","N","N","N","NONE","","RECOVERED/RESOLVED",2,"Y","","","","","","","",""],[354,"CDISCPILOT01","704","01-704-1093","Xanomeline High Dose",81,79,"65-80",2,"WHITE",1,"M","Y",19432,19526,19482,"",51,null,null,null,"","RASH","RASH",null,"RASH",null,"HLT_0762",null,"HLGT_0198",null,"SKIN AND SUBCUTANEOUS TISSUE DISORDERS","SKIN AND SUBCUTANEOUS TISSUE DISORDERS",null,"MILD","N","N","N","N","N","N","N","N","PROBABLE","","NOT RECOVERED/NOT RESOLVED",3,"Y","","Y","Y","","","","DERMATOLOGIC EVENTS","Y"],[355,"CDISCPILOT01","704","01-704-1093","Xanomeline High Dose",81,79,"65-80",2,"WHITE",1,"M","Y",19432,19526,19482,"",51,null,null,null,"","PRURITUS","ITCHING",null,"PRURITUS",null,"HLT_0778",null,"HLGT_0695",null,"SKIN AND SUBCUTANEOUS TISSUE DISORDERS","SKIN AND SUBCUTANEOUS TISSUE DISORDERS",null,"MILD","N","N","N","N","N","N","N","N","PROBABLE","","NOT RECOVERED/NOT RESOLVED",4,"Y","","","Y","","","","DERMATOLOGIC EVENTS",""],[356,"CDISCPILOT01","704","01-704-1114","Xanomeline Low Dose",54,77,"65-80",2,"WHITE",1,"M","Y",19381,19546,19410,"",30,19412,32,3,"DAY","ERYTHEMA","REDNESS",null,"ERYTHEMA",null,"HLT_0284",null,"HLGT_0192",null,"SKIN AND SUBCUTANEOUS TISSUE DISORDERS","SKIN AND SUBCUTANEOUS TISSUE DISORDERS",null,"MILD","N","N","N","N","N","N","N","N","PROBABLE","","RECOVERED/RESOLVED",1,"Y","Y","Y","Y","","","","DERMATOLOGIC EVENTS","Y"],[357,"CDISCPILOT01","704","01-704-1114","Xanomeline Low Dose",54,77,"65-80",2,"WHITE",1,"M","Y",19381,19546,19412,"",32,null,null,null,"","OEDEMA","EDEMA",null,"OEDEMA",null,"HLT_0656",null,"HLGT_0036",null,"GENERAL DISORDERS AND ADMINISTRATION SITE CONDITIONS","GENERAL DISORDERS AND ADMINISTRATION SITE CONDITIONS",null,"MILD","N","N","N","N","N","N","N","N","PROBABLE","","NOT RECOVERED/NOT RESOLVED",2,"Y","","Y","Y","","","","",""],[358,"CDISCPILOT01","704","01-704-1114","Xanomeline Low Dose",54,77,"65-80",2,"WHITE",1,"M","Y",19381,19546,19440,"",60,null,null,null,"","RASH","RASH",null,"RASH",null,"HLT_0762",null,"HLGT_0198",null,"SKIN AND SUBCUTANEOUS TISSUE DISORDERS","SKIN AND SUBCUTANEOUS TISSUE DISORDERS",null,"MILD","N","N","N","N","N","N","N","N","PROBABLE","","NOT RECOVERED/NOT RESOLVED",3,"Y","","","Y","","","","DERMATOLOGIC EVENTS",""],[359,"CDISCPILOT01","704","01-704-1114","Xanomeline Low Dose",54,77,"65-80",2,"WHITE",1,"M","Y",19381,19546,19440,"",60,null,null,null,"","PRURITUS","ITCHING",null,"PRURITUS",null,"HLT_0778",null,"HLGT_0695",null,"SKIN AND SUBCUTANEOUS TISSUE DISORDERS","SKIN AND SUBCUTANEOUS TISSUE DISORDERS",null,"MILD","N","N","N","N","N","N","N","N","PROBABLE","","NOT RECOVERED/NOT RESOLVED",4,"Y","","","Y","","","","DERMATOLOGIC EVENTS",""],[360,"CDISCPILOT01","704","01-704-1114","Xanomeline Low Dose",54,77,"65-80",2,"WHITE",1,"M","Y",19381,19546,19516,"",136,19522,142,7,"DAY","INFLUENZA","FLU",null,"INFLUENZA",null,"HLT_0125",null,"HLGT_0081",null,"INFECTIONS AND INFESTATIONS","INFECTIONS AND INFESTATIONS",null,"MILD","N","N","N","N","N","N","N","N","NONE","","RECOVERED/RESOLVED",5,"Y","","Y","Y","","","","",""],[361,"CDISCPILOT01","704","01-704-1120","Xanomeline Low Dose",54,71,"65-80",2,"WHITE",1,"F","Y",19694,19755,19715,"",22,null,null,null,"","RASH","RASH",null,"RASH",null,"HLT_0762",null,"HLGT_0198",null,"SKIN AND SUBCUTANEOUS TISSUE DISORDERS","SKIN AND SUBCUTANEOUS TISSUE DISORDERS",null,"MILD","N","N","N","N","N","N","N","N","PROBABLE","","NOT RECOVERED/NOT RESOLVED",1,"Y","Y","Y","Y","","","","DERMATOLOGIC EVENTS","Y"],[362,"CDISCPILOT01","704","01-704-1120","Xanomeline Low Dose",54,71,"65-80",2,"WHITE",1,"F","Y",19694,19755,19720,"",27,19757,64,38,"DAY","NASOPHARYNGITIS","COLD",null,"NASOPHARYNGITIS",null,"HLT_0036",null,"HLGT_0709",null,"INFECTIONS AND INFESTATIONS","INFECTIONS AND INFESTATIONS",null,"MILD","N","N","N","N","N","N","N","N","NONE","","NOT RECOVERED/NOT RESOLVED",2,"Y","","Y","Y","","","","",""],[363,"CDISCPILOT01","704","01-704-1120","Xanomeline Low Dose",54,71,"65-80",2,"WHITE",1,"F","Y",19694,19755,19715,"",22,null,null,null,"","RASH","RASH",null,"RASH",null,"HLT_0762",null,"HLGT_0198",null,"SKIN AND SUBCUTANEOUS TISSUE DISORDERS","SKIN AND SUBCUTANEOUS TISSUE DISORDERS",null,"MODERATE","N","N","N","N","N","N","N","N","PROBABLE","","NOT RECOVERED/NOT RESOLVED",3,"Y","","","","","","","DERMATOLOGIC EVENTS",""],[364,"CDISCPILOT01","704","01-704-1120","Xanomeline Low Dose",54,71,"65-80",2,"WHITE",1,"F","Y",19694,19755,19750,"",57,null,null,null,"","PRURITUS","ITCHING",null,"PRURITUS",null,"HLT_0778",null,"HLGT_0695",null,"SKIN AND SUBCUTANEOUS TISSUE DISORDERS","SKIN AND SUBCUTANEOUS TISSUE DISORDERS",null,"MILD","N","N","N","N","N","N","N","N","PROBABLE","","NOT RECOVERED/NOT RESOLVED",4,"Y","","","Y","","","","DERMATOLOGIC EVENTS",""],[365,"CDISCPILOT01","704","01-704-1120","Xanomeline Low Dose",54,71,"65-80",2,"WHITE",1,"F","Y",19694,19755,19750,"",57,null,null,null,"","PRURITUS","ITCHING",null,"PRURITUS",null,"HLT_0778",null,"HLGT_0695",null,"SKIN AND SUBCUTANEOUS TISSUE DISORDERS","SKIN AND SUBCUTANEOUS TISSUE DISORDERS",null,"MODERATE","N","N","N","N","N","N","N","N","PROBABLE","","NOT RECOVERED/NOT RESOLVED",5,"Y","","","","","","","DERMATOLOGIC EVENTS",""],[366,"CDISCPILOT01","704","01-704-1120","Xanomeline Low Dose",54,71,"65-80",2,"WHITE",1,"F","Y",19694,19755,19720,"",27,19757,64,38,"DAY","NASOPHARYNGITIS","COLD",null,"NASOPHARYNGITIS",null,"HLT_0036",null,"HLGT_0709",null,"INFECTIONS AND INFESTATIONS","INFECTIONS AND INFESTATIONS",null,"MILD","N","N","N","N","N","N","N","N","NONE","","RECOVERED/RESOLVED",6,"Y","","","","","","","",""],[367,"CDISCPILOT01","704","01-704-1135","Xanomeline Low Dose",54,74,"65-80",2,"WHITE",1,"F","Y",19662,19859,19700,"",39,null,null,null,"","RASH","RASH",null,"RASH",null,"HLT_0762",null,"HLGT_0198",null,"SKIN AND SUBCUTANEOUS TISSUE DISORDERS","SKIN AND SUBCUTANEOUS TISSUE DISORDERS",null,"MILD","N","N","N","N","N","N","N","N","","","NOT RECOVERED/NOT RESOLVED",1,"Y","Y","Y","Y","","","","DERMATOLOGIC EVENTS","Y"],[368,"CDISCPILOT01","704","01-704-1135","Xanomeline Low Dose",54,74,"65-80",2,"WHITE",1,"F","Y",19662,19859,19700,"",39,null,null,null,"","RASH","RASH",null,"RASH",null,"HLT_0762",null,"HLGT_0198",null,"SKIN AND SUBCUTANEOUS TISSUE DISORDERS","SKIN AND SUBCUTANEOUS TISSUE DISORDERS",null,"SEVERE","N","N","N","N","N","N","N","N","","","NOT RECOVERED/NOT RESOLVED",2,"Y","","","","","","","DERMATOLOGIC EVENTS",""],[369,"CDISCPILOT01","704","01-704-1164","Placebo",0,67,"65-80",2,"WHITE",1,"F","Y",19255,19452,19263,"",9,19273,19,11,"DAY","INFLUENZA","FLU",null,"INFLUENZA",null,"HLT_0125",null,"HLGT_0081",null,"INFECTIONS AND INFESTATIONS","INFECTIONS AND INFESTATIONS",null,"MILD","N","N","N","N","N","N","N","N","NONE","","NOT RECOVERED/NOT RESOLVED",1,"Y","Y","Y","Y","","","","",""],[370,"CDISCPILOT01","704","01-704-1164","Placebo",0,67,"65-80",2,"WHITE",1,"F","Y",19255,19452,19263,"",9,19273,19,11,"DAY","INFLUENZA","FLU",null,"INFLUENZA",null,"HLT_0125",null,"HLGT_0081",null,"INFECTIONS AND INFESTATIONS","INFECTIONS AND INFESTATIONS",null,"MILD","N","N","N","N","N","N","N","N","NONE","","RECOVERED/RESOLVED",2,"Y","","","","","","","",""],[371,"CDISCPILOT01","704","01-704-1164","Placebo",0,67,"65-80",2,"WHITE",1,"F","Y",19255,19452,19393,"",139,19402,148,10,"DAY","OEDEMA PERIPHERAL","SWELLING OF FEET",null,"OEDEMA PERIPHERAL",null,"HLT_0661",null,"HLGT_0137",null,"GENERAL DISORDERS AND ADMINISTRATION SITE CONDITIONS","GENERAL DISORDERS AND ADMINISTRATION SITE CONDITIONS",null,"MILD","N","N","N","N","N","N","N","N","NONE","","RECOVERED/RESOLVED",3,"Y","","Y","Y","","","","",""],[372,"CDISCPILOT01","704","01-704-1218","Xanomeline Low Dose",54,81,">80",3,"WHITE",1,"F","Y",19316,19505,19357,"",42,null,null,null,"","BLOOD GLUCOSE INCREASED","GLUCOSE INCREASED",null,"BLOOD GLUCOSE INCREASED",null,"HLT_0450",null,"HLGT_0188",null,"INVESTIGATIONS","INVESTIGATIONS",null,"MILD","N","N","N","N","N","N","N","N","NONE","","NOT RECOVERED/NOT RESOLVED",1,"Y","Y","Y","Y","","","","",""],[373,"CDISCPILOT01","704","01-704-1241","Xanomeline High Dose",81,86,">80",3,"WHITE",1,"M","Y",19595,19640,19584,"",-11,null,null,null,"","RASH","RASH",null,"RASH",null,"HLT_0762",null,"HLGT_0198",null,"SKIN AND SUBCUTANEOUS TISSUE DISORDERS","SKIN AND SUBCUTANEOUS TISSUE DISORDERS",null,"MODERATE","N","N","N","N","N","N","N","N","NONE","","NOT RECOVERED/NOT RESOLVED",1,"","","","","","","","DERMATOLOGIC EVENTS",""],[374,"CDISCPILOT01","704","01-704-1241","Xanomeline High Dose",81,86,">80",3,"WHITE",1,"M","Y",19595,19640,19629,"",35,null,null,null,"","DYSPNOEA","RESPIRATION LABORED",null,"DYSPNOEA",null,"HLT_0296",null,"HLGT_0255",null,"RESPIRATORY, THORACIC AND MEDIASTINAL DISORDERS","RESPIRATORY, THORACIC AND MEDIASTINAL DISORDERS",null,"MILD","N","N","N","N","N","N","N","N","NONE","","NOT RECOVERED/NOT RESOLVED",2,"Y","Y","Y","Y","","","","",""],[375,"CDISCPILOT01","704","01-704-1266","Xanomeline High Dose",81,82,">80",3,"WHITE",1,"M","Y",19644,19698,19637,"",-7,null,null,null,"","SEASONAL ALLERGY","HAY FEVER",null,"SEASONAL ALLERGY",null,"HLT_0714",null,"HLGT_0782",null,"IMMUNE SYSTEM DISORDERS","IMMUNE SYSTEM DISORDERS",null,"MILD","N","N","N","N","N","N","N","N","NONE","","NOT RECOVERED/NOT RESOLVED",1,"","","","","","","","",""],[376,"CDISCPILOT01","704","01-704-1266","Xanomeline High Dose",81,82,">80",3,"WHITE",1,"M","Y",19644,19698,19648,"",5,19715,72,68,"DAY","ERYTHEMA","ERYTHEMA",null,"ERYTHEMA",null,"HLT_0284",null,"HLGT_0192",null,"SKIN AND SUBCUTANEOUS TISSUE DISORDERS","SKIN AND SUBCUTANEOUS TISSUE DISORDERS",null,"MILD","N","N","N","N","N","N","N","N","PROBABLE","","NOT RECOVERED/NOT RESOLVED",2,"Y","Y","Y","Y","","","","DERMATOLOGIC EVENTS","Y"],[377,"CDISCPILOT01","704","01-704-1266","Xanomeline High Dose",81,82,">80",3,"WHITE",1,"M","Y",19644,19698,19658,"",15,19670,27,13,"DAY","ATRIAL FLUTTER","ATRIAL FLUTTER",null,"ATRIAL FLUTTER",null,"HLT_0477",null,"HLGT_0627",null,"CARDIAC DISORDERS","CARDIAC DISORDERS",null,"MILD","N","N","N","N","N","N","N","N","NONE","","NOT RECOVERED/NOT RESOLVED",3,"Y","","Y","Y","","","","",""],[378,"CDISCPILOT01","704","01-704-1266","Xanomeline High Dose",81,82,">80",3,"WHITE",1,"M","Y",19644,19698,19670,"",27,19698,55,29,"DAY","ATRIAL FIBRILLATION","ATRIAL FIBRILLATION",null,"ATRIAL FIBRILLATION",null,"HLT_0365",null,"HLGT_0012",null,"CARDIAC DISORDERS","CARDIAC DISORDERS",null,"MILD","N","N","N","N","N","N","N","N","NONE","","NOT RECOVERED/NOT RESOLVED",4,"Y","","","Y","","","","",""],[379,"CDISCPILOT01","704","01-704-1266","Xanomeline High Dose",81,82,">80",3,"WHITE",1,"M","Y",19644,19698,19658,"",15,19670,27,13,"DAY","ATRIAL FLUTTER","ATRIAL FLUTTER",null,"ATRIAL FLUTTER",null,"HLT_0477",null,"HLGT_0627",null,"CARDIAC DISORDERS","CARDIAC DISORDERS",null,"MILD","N","N","N","N","N","N","N","N","NONE","","RECOVERED/RESOLVED",5,"Y","","","","","","","",""],[380,"CDISCPILOT01","704","01-704-1266","Xanomeline High Dose",81,82,">80",3,"WHITE",1,"M","Y",19644,19698,19671,"",28,19696,53,26,"DAY","HYPERHIDROSIS","PERSPIRATION EXCESSIVE",null,"HYPERHIDROSIS",null,"HLT_0587",null,"HLGT_0005",null,"SKIN AND SUBCUTANEOUS TISSUE DISORDERS","SKIN AND SUBCUTANEOUS TISSUE DISORDERS",null,"MILD","N","N","N","N","N","N","N","N","POSSIBLE","","NOT RECOVERED/NOT RESOLVED",6,"Y","","","Y","","","","",""],[381,"CDISCPILOT01","704","01-704-1266","Xanomeline High Dose",81,82,">80",3,"WHITE",1,"M","Y",19644,19698,19677,"",34,19706,63,30,"DAY","BLISTER","BLISTERING",null,"BLISTER",null,"HLT_0752",null,"HLGT_0267",null,"SKIN AND SUBCUTANEOUS TISSUE DISORDERS","SKIN AND SUBCUTANEOUS TISSUE DISORDERS",null,"MILD","N","N","N","N","N","N","N","N","PROBABLE","","NOT RECOVERED/NOT RESOLVED",7,"Y","","","Y","","","","DERMATOLOGIC EVENTS",""],[382,"CDISCPILOT01","704","01-704-1266","Xanomeline High Dose",81,82,">80",3,"WHITE",1,"M","Y",19644,19698,19677,"",34,19715,72,39,"DAY","PRURITUS","ITCHING",null,"PRURITUS",null,"HLT_0778",null,"HLGT_0695",null,"SKIN AND SUBCUTANEOUS TISSUE DISORDERS","SKIN AND SUBCUTANEOUS TISSUE DISORDERS",null,"MILD","N","N","N","N","N","N","N","N","PROBABLE","","NOT RECOVERED/NOT RESOLVED",8,"Y","","","Y","","","","DERMATOLOGIC EVENTS",""],[383,"CDISCPILOT01","704","01-704-1266","Xanomeline High Dose",81,82,">80",3,"WHITE",1,"M","Y",19644,19698,19648,"",5,19715,72,68,"DAY","ERYTHEMA","ERYTHEMA",null,"ERYTHEMA",null,"HLT_0284",null,"HLGT_0192",null,"SKIN AND SUBCUTANEOUS TISSUE DISORDERS","SKIN AND SUBCUTANEOUS TISSUE DISORDERS",null,"MODERATE","N","N","N","N","N","N","N","N","PROBABLE","","NOT RECOVERED/NOT RESOLVED",9,"Y","","","","","","","DERMATOLOGIC EVENTS",""],[384,"CDISCPILOT01","704","01-704-1266","Xanomeline High Dose",81,82,">80",3,"WHITE",1,"M","Y",19644,19698,19671,"",28,19696,53,26,"DAY","HYPERHIDROSIS","PERSPIRATION EXCESSIVE",null,"HYPERHIDROSIS",null,"HLT_0587",null,"HLGT_0005",null,"SKIN AND SUBCUTANEOUS TISSUE DISORDERS","SKIN AND SUBCUTANEOUS TISSUE DISORDERS",null,"MILD","N","N","N","N","N","N","N","N","POSSIBLE","","RECOVERED/RESOLVED",10,"Y","","","","","","","",""],[385,"CDISCPILOT01","704","01-704-1266","Xanomeline High Dose",81,82,">80",3,"WHITE",1,"M","Y",19644,19698,19698,"",55,19715,72,18,"DAY","ERYTHEMA","REDNESS",null,"ERYTHEMA",null,"HLT_0284",null,"HLGT_0192",null,"SKIN AND SUBCUTANEOUS TISSUE DISORDERS","SKIN AND SUBCUTANEOUS TISSUE DISORDERS",null,"MILD","N","N","N","N","N","N","N","N","PROBABLE","","NOT RECOVERED/NOT RESOLVED",11,"Y","","","","","","","DERMATOLOGIC EVENTS",""],[386,"CDISCPILOT01","704","01-704-1266","Xanomeline High Dose",81,82,">80",3,"WHITE",1,"M","Y",19644,19698,19648,"",5,19715,72,68,"DAY","ERYTHEMA","ERYTHEMA",null,"ERYTHEMA",null,"HLT_0284",null,"HLGT_0192",null,"SKIN AND SUBCUTANEOUS TISSUE DISORDERS","SKIN AND SUBCUTANEOUS TISSUE DISORDERS",null,"MODERATE","N","N","N","N","N","N","N","N","PROBABLE","","RECOVERED/RESOLVED",12,"Y","","","","","","","DERMATOLOGIC EVENTS",""],[387,"CDISCPILOT01","704","01-704-1266","Xanomeline High Dose",81,82,">80",3,"WHITE",1,"M","Y",19644,19698,19670,"",27,19698,55,29,"DAY","ATRIAL FIBRILLATION","ATRIAL FIBRILLATION",null,"ATRIAL FIBRILLATION",null,"HLT_0365",null,"HLGT_0012",null,"CARDIAC DISORDERS","CARDIAC DISORDERS",null,"MILD","N","N","N","N","N","N","N","N","NONE","","RECOVERED/RESOLVED",13,"Y","","","","","","","",""],[388,"CDISCPILOT01","704","01-704-1266","Xanomeline High Dose",81,82,">80",3,"WHITE",1,"M","Y",19644,19698,19677,"",34,19706,63,30,"DAY","BLISTER","BLISTERING",null,"BLISTER",null,"HLT_0752",null,"HLGT_0267",null,"SKIN AND SUBCUTANEOUS TISSUE DISORDERS","SKIN AND SUBCUTANEOUS TISSUE DISORDERS",null,"MILD","N","N","N","N","N","N","N","N","PROBABLE","","RECOVERED/RESOLVED",14,"Y","","","","","","","DERMATOLOGIC EVENTS",""],[389,"CDISCPILOT01","704","01-704-1266","Xanomeline High Dose",81,82,">80",3,"WHITE",1,"M","Y",19644,19698,19677,"",34,19715,72,39,"DAY","PRURITUS","ITCHING",null,"PRURITUS",null,"HLT_0778",null,"HLGT_0695",null,"SKIN AND SUBCUTANEOUS TISSUE DISORDERS","SKIN AND SUBCUTANEOUS TISSUE DISORDERS",null,"MILD","N","N","N","N","N","N","N","N","PROBABLE","","RECOVERED/RESOLVED",15,"Y","","","","","","","DERMATOLOGIC EVENTS",""],[390,"CDISCPILOT01","704","01-704-1266","Xanomeline High Dose",81,82,">80",3,"WHITE",1,"M","Y",19644,19698,19698,"",55,19715,72,18,"DAY","ERYTHEMA","REDNESS",null,"ERYTHEMA",null,"HLT_0284",null,"HLGT_0192",null,"SKIN AND SUBCUTANEOUS TISSUE DISORDERS","SKIN AND SUBCUTANEOUS TISSUE DISORDERS",null,"MILD","N","N","N","N","N","N","N","N","PROBABLE","","RECOVERED/RESOLVED",16,"Y","","","","","","","DERMATOLOGIC EVENTS",""],[391,"CDISCPILOT01","704","01-704-1323","Xanomeline Low Dose",54,68,"65-80",2,"WHITE",1,"F","Y",19547,19575,19569,"",23,19573,27,5,"DAY","VIRAL INFECTION","VIRAL INFECTION",null,"VIRAL INFECTION",null,"HLT_0733",null,"HLGT_0408",null,"INFECTIONS AND INFESTATIONS","INFECTIONS AND INFESTATIONS",null,"MILD","N","N","N","N","N","N","N","N","NONE","","RECOVERED/RESOLVED",1,"Y","Y","Y","Y","","","","",""],[392,"CDISCPILOT01","704","01-704-1323","Xanomeline Low Dose",54,68,"65-80",2,"WHITE",1,"F","Y",19547,19575,19574,"",28,null,null,null,"","RASH","RASH",null,"RASH",null,"HLT_0762",null,"HLGT_0198",null,"SKIN AND SUBCUTANEOUS TISSUE DISORDERS","SKIN AND SUBCUTANEOUS TISSUE DISORDERS",null,"MILD","N","N","N","N","N","N","N","N","PROBABLE","","NOT RECOVERED/NOT RESOLVED",2,"Y","","Y","Y","","","","DERMATOLOGIC EVENTS","Y"],[393,"CDISCPILOT01","704","01-704-1323","Xanomeline Low Dose",54,68,"65-80",2,"WHITE",1,"F","Y",19547,19575,19574,"",28,null,null,null,"","PRURITUS","ITCHING",null,"PRURITUS",null,"HLT_0778",null,"HLGT_0695",null,"SKIN AND SUBCUTANEOUS TISSUE DISORDERS","SKIN AND SUBCUTANEOUS TISSUE DISORDERS",null,"MILD","N","N","N","N","N","N","N","N","PROBABLE","","NOT RECOVERED/NOT RESOLVED",3,"Y","","","Y","","","","DERMATOLOGIC EVENTS",""],[394,"CDISCPILOT01","704","01-704-1323","Xanomeline Low Dose",54,68,"65-80",2,"WHITE",1,"F","Y",19547,19575,19574,"",28,null,null,null,"","OEDEMA","EDEMA",null,"OEDEMA",null,"HLT_0656",null,"HLGT_0036",null,"GENERAL DISORDERS AND ADMINISTRATION SITE CONDITIONS","GENERAL DISORDERS AND ADMINISTRATION SITE CONDITIONS",null,"MILD","N","N","N","N","N","N","N","N","PROBABLE","","NOT RECOVERED/NOT RESOLVED",4,"Y","","Y","Y","","","","",""],[395,"CDISCPILOT01","704","01-704-1325","Xanomeline Low Dose",54,81,">80",3,"WHITE",1,"M","Y",19836,19908,19866,"",31,null,null,null,"","RASH","RASH",null,"RASH",null,"HLT_0762",null,"HLGT_0198",null,"SKIN AND SUBCUTANEOUS TISSUE DISORDERS","SKIN AND SUBCUTANEOUS TISSUE DISORDERS",null,"MILD","N","N","N","N","N","N","N","N","PROBABLE","","NOT RECOVERED/NOT RESOLVED",1,"Y","Y","Y","Y","","","","DERMATOLOGIC EVENTS","Y"],[396,"CDISCPILOT01","704","01-704-1325","Xanomeline Low Dose",54,81,">80",3,"WHITE",1,"M","Y",19836,19908,19908,"",73,null,null,null,"","PRURITUS","ITCHING",null,"PRURITUS",null,"HLT_0778",null,"HLGT_0695",null,"SKIN AND SUBCUTANEOUS TISSUE DISORDERS","SKIN AND SUBCUTANEOUS TISSUE DISORDERS",null,"MILD","N","N","N","N","N","N","N","N","PROBABLE","","NOT RECOVERED/NOT RESOLVED",2,"Y","","","Y","","","","DERMATOLOGIC EVENTS",""],[397,"CDISCPILOT01","704","01-704-1332","Xanomeline High Dose",81,80,"65-80",2,"WHITE",1,"M","Y",19701,19768,19702,"",2,19778,78,77,"DAY","RASH","RASH",null,"RASH",null,"HLT_0762",null,"HLGT_0198",null,"SKIN AND SUBCUTANEOUS TISSUE DISORDERS","SKIN AND SUBCUTANEOUS TISSUE DISORDERS",null,"MILD","N","N","N","N","N","N","N","N","NONE","","NOT RECOVERED/NOT RESOLVED",1,"Y","Y","Y","Y","","","","DERMATOLOGIC EVENTS","Y"],[398,"CDISCPILOT01","704","01-704-1332","Xanomeline High Dose",81,80,"65-80",2,"WHITE",1,"M","Y",19701,19768,19741,"",41,19778,78,38,"DAY","PRURITUS","ITCHING",null,"PRURITUS",null,"HLT_0778",null,"HLGT_0695",null,"SKIN AND SUBCUTANEOUS TISSUE DISORDERS","SKIN AND SUBCUTANEOUS TISSUE DISORDERS",null,"MILD","N","N","N","N","N","N","N","N","PROBABLE","","NOT RECOVERED/NOT RESOLVED",2,"Y","","","Y","","","","DERMATOLOGIC EVENTS",""],[399,"CDISCPILOT01","704","01-704-1332","Xanomeline High Dose",81,80,"65-80",2,"WHITE",1,"M","Y",19701,19768,19702,"",2,19778,78,77,"DAY","RASH","RASH",null,"RASH",null,"HLT_0762",null,"HLGT_0198",null,"SKIN AND SUBCUTANEOUS TISSUE DISORDERS","SKIN AND SUBCUTANEOUS TISSUE DISORDERS",null,"MODERATE","N","N","N","N","N","N","N","N","NONE","","NOT RECOVERED/NOT RESOLVED",3,"Y","","","","","","","DERMATOLOGIC EVENTS",""],[400,"CDISCPILOT01","704","01-704-1332","Xanomeline High Dose",81,80,"65-80",2,"WHITE",1,"M","Y",19701,19768,19757,"",57,null,null,null,"","BURNING SENSATION","BURNING SENSATION",null,"BURNING SENSATION",null,"HLT_0775",null,"HLGT_0456",null,"NERVOUS SYSTEM DISORDERS","NERVOUS SYSTEM DISORDERS",null,"MILD","N","N","N","N","N","N","N","N","PROBABLE","","NOT RECOVERED/NOT RESOLVED",4,"Y","","Y","Y","","","","",""],[401,"CDISCPILOT01","704","01-704-1332","Xanomeline High Dose",81,80,"65-80",2,"WHITE",1,"M","Y",19701,19768,19702,"",2,19778,78,77,"DAY","RASH","RASH",null,"RASH",null,"HLT_0762",null,"HLGT_0198",null,"SKIN AND SUBCUTANEOUS TISSUE DISORDERS","SKIN AND SUBCUTANEOUS TISSUE DISORDERS",null,"MODERATE","N","N","N","N","N","N","N","N","NONE","","RECOVERED/RESOLVED",5,"Y","","","","","","","DERMATOLOGIC EVENTS",""],[402,"CDISCPILOT01","704","01-704-1332","Xanomeline High Dose",81,80,"65-80",2,"WHITE",1,"M","Y",19701,19768,19741,"",41,19778,78,38,"DAY","PRURITUS","ITCHING",null,"PRURITUS",null,"HLT_0778",null,"HLGT_0695",null,"SKIN AND SUBCUTANEOUS TISSUE DISORDERS","SKIN AND SUBCUTANEOUS TISSUE DISORDERS",null,"MILD","N","N","N","N","N","N","N","N","PROBABLE","","RECOVERED/RESOLVED",6,"Y","","","","","","","DERMATOLOGIC EVENTS",""],[403,"CDISCPILOT01","704","01-704-1351","Placebo",0,70,"65-80",2,"WHITE",1,"M","Y",19643,19831,19658,"",16,19817,175,160,"DAY","POLLAKIURIA","URINARY FREQUENCY",null,"POLLAKIURIA",null,"HLT_0393",null,"HLGT_0560",null,"RENAL AND URINARY DISORDERS","RENAL AND URINARY DISORDERS",null,"MILD","N","N","N","N","N","N","N","N","NONE","","NOT RECOVERED/NOT RESOLVED",1,"Y","Y","Y","Y","","","","",""],[404,"CDISCPILOT01","704","01-704-1351","Placebo",0,70,"65-80",2,"WHITE",1,"M","Y",19643,19831,19658,"",16,19817,175,160,"DAY","FLATULENCE","GAS",null,"FLATULENCE",null,"HLT_0356",null,"HLGT_0504",null,"GASTROINTESTINAL DISORDERS","GASTROINTESTINAL DISORDERS",null,"MILD","N","N","N","N","N","N","N","N","NONE","","NOT RECOVERED/NOT RESOLVED",2,"Y","","Y","Y","","","","",""],[405,"CDISCPILOT01","704","01-704-1351","Placebo",0,70,"65-80",2,"WHITE",1,"M","Y",19643,19831,19658,"",16,19817,175,160,"DAY","POLLAKIURIA","URINARY FREQUENCY",null,"POLLAKIURIA",null,"HLT_0393",null,"HLGT_0560",null,"RENAL AND URINARY DISORDERS","RENAL AND URINARY DISORDERS",null,"MILD","N","N","N","N","N","N","N","N","NONE","","RECOVERED/RESOLVED",3,"Y","","","","","","","",""],[406,"CDISCPILOT01","704","01-704-1351","Placebo",0,70,"65-80",2,"WHITE",1,"M","Y",19643,19831,19658,"",16,19817,175,160,"DAY","FLATULENCE","GAS",null,"FLATULENCE",null,"HLT_0356",null,"HLGT_0504",null,"GASTROINTESTINAL DISORDERS","GASTROINTESTINAL DISORDERS",null,"MILD","N","N","N","N","N","N","N","N","NONE","","RECOVERED/RESOLVED",4,"Y","","","","","","","",""],[407,"CDISCPILOT01","704","01-704-1388","Placebo",0,81,">80",3,"WHITE",1,"M","Y",19334,19520,19228,"",-106,null,null,null,"","HEADACHE","HEADACHE",null,"HEADACHE",null,"HLT_0064",null,"HLGT_0344",null,"NERVOUS SYSTEM DISORDERS","NERVOUS SYSTEM DISORDERS",null,"MODERATE","N","N","N","N","N","N","N","N","NONE","","NOT RECOVERED/NOT RESOLVED",1,"","","","","","","","",""],[408,"CDISCPILOT01","704","01-704-1435","Placebo",0,74,"65-80",2,"WHITE",1,"M","Y",19314,19367,19364,"",51,null,null,null,"","PARKINSON'S DISEASE","DISEASE PARKINSON'S",null,"PARKINSON'S DISEASE",null,"HLT_0279",null,"HLGT_0313",null,"NERVOUS SYSTEM DISORDERS","NERVOUS SYSTEM DISORDERS",null,"MILD","N","N","N","N","N","N","N","N","NONE","","NOT RECOVERED/NOT RESOLVED",1,"Y","Y","Y","Y","","","","",""],[409,"CDISCPILOT01","704","01-704-1445","Placebo",0,75,"65-80",2,"WHITE",1,"M","Y",19854,20028,20027,"",174,20027,174,1,"DAY","COMPLETED SUICIDE","SUICIDE",null,"COMPLETED SUICIDE",null,"HLT_0625",null,"HLGT_0013",null,"PSYCHIATRIC DISORDERS","PSYCHIATRIC DISORDERS",null,"SEVERE","N","N","N","N","Y","N","N","N","NONE","","FATAL",1,"Y","Y","Y","Y","","","","",""],[410,"CDISCPILOT01","705","01-705-1031","Xanomeline Low Dose",54,56,"<65",1,"WHITE",1,"F","Y",19689,19854,19717,"",29,null,null,null,"","RASH","RASH",null,"RASH",null,"HLT_0762",null,"HLGT_0198",null,"SKIN AND SUBCUTANEOUS TISSUE DISORDERS","SKIN AND SUBCUTANEOUS TISSUE DISORDERS",null,"MILD","N","N","N","N","N","N","N","N","POSSIBLE","","NOT RECOVERED/NOT RESOLVED",1,"Y","Y","Y","Y","","","","DERMATOLOGIC EVENTS","Y"],[411,"CDISCPILOT01","705","01-705-1059","Placebo",0,66,"65-80",2,"WHITE",1,"F","Y",19575,19697,19664,"",90,null,null,null,"","ERYTHEMA","ERYTHEMA",null,"ERYTHEMA",null,"HLT_0284",null,"HLGT_0192",null,"SKIN AND SUBCUTANEOUS TISSUE DISORDERS","SKIN AND SUBCUTANEOUS TISSUE DISORDERS",null,"MODERATE","N","N","N","N","N","N","N","N","PROBABLE","","NOT RECOVERED/NOT RESOLVED",1,"Y","Y","Y","Y","","","","DERMATOLOGIC EVENTS","Y"],[412,"CDISCPILOT01","705","01-705-1186","Placebo",0,84,">80",3,"WHITE",1,"F","Y",19731,19749,19749,"",19,null,null,null,"","HYPERBILIRUBINAEMIA","HYPERBILIRUBINEMIA",null,"HYPERBILIRUBINAEMIA",null,"HLT_0478",null,"HLGT_0087",null,"HEPATOBILIARY DISORDERS","HEPATOBILIARY DISORDERS",null,"MODERATE","N","N","N","N","N","N","N","N","REMOTE","","NOT RECOVERED/NOT RESOLVED",1,"Y","Y","Y","Y","","","","",""],[413,"CDISCPILOT01","705","01-705-1199","Xanomeline Low Dose",54,87,">80",3,"WHITE",1,"M","Y",19617,19629,19618,"",2,19630,14,13,"DAY","DYSPEPSIA","PYROSIS",null,"DYSPEPSIA",null,"HLT_0244",null,"HLGT_0716",null,"GASTROINTESTINAL DISORDERS","GASTROINTESTINAL DISORDERS",null,"MODERATE","N","N","N","N","N","N","N","N","POSSIBLE","","NOT RECOVERED/NOT RESOLVED",1,"Y","Y","Y","Y","","","","",""],[414,"CDISCPILOT01","705","01-705-1199","Xanomeline Low Dose",54,87,">80",3,"WHITE",1,"M","Y",19617,19629,19618,"",2,19630,14,13,"DAY","DYSPEPSIA","PYROSIS",null,"DYSPEPSIA",null,"HLT_0244",null,"HLGT_0716",null,"GASTROINTESTINAL DISORDERS","GASTROINTESTINAL DISORDERS",null,"MODERATE","N","N","N","N","N","N","N","N","POSSIBLE","","RECOVERED/RESOLVED",2,"Y","","","","","","","",""],[415,"CDISCPILOT01","705","01-705-1280","Xanomeline High Dose",81,56,"<65",1,"WHITE",1,"F","Y",19740,19929,19833,"",94,null,null,null,"","PRURITUS","PRURITUS",null,"PRURITUS",null,"HLT_0778",null,"HLGT_0695",null,"SKIN AND SUBCUTANEOUS TISSUE DISORDERS","SKIN AND SUBCUTANEOUS TISSUE DISORDERS",null,"MILD","N","N","N","N","N","N","N","N","POSSIBLE","","NOT RECOVERED/NOT RESOLVED",1,"Y","Y","Y","Y","","","","DERMATOLOGIC EVENTS","Y"],[416,"CDISCPILOT01","705","01-705-1281","Xanomeline High Dose",81,73,"65-80",2,"BLACK OR AFRICAN AMERICAN",2,"F","Y",19690,19781,19753,"",64,null,null,null,"","PRURITUS","PRURITUS",null,"PRURITUS",null,"HLT_0778",null,"HLGT_0695",null,"SKIN AND SUBCUTANEOUS TISSUE DISORDERS","SKIN AND SUBCUTANEOUS TISSUE DISORDERS",null,"MILD","N","N","N","N","N","N","N","N","POSSIBLE","","NOT RECOVERED/NOT RESOLVED",1,"Y","Y","Y","Y","","","","DERMATOLOGIC EVENTS","Y"],[417,"CDISCPILOT01","705","01-705-1281","Xanomeline High Dose",81,73,"65-80",2,"BLACK OR AFRICAN AMERICAN",2,"F","Y",19690,19781,19753,"",64,null,null,null,"","EXCORIATION","ABRASIONS",null,"EXCORIATION",null,"HLT_0738",null,"HLGT_0511",null,"INJURY, POISONING AND PROCEDURAL COMPLICATIONS","INJURY, POISONING AND PROCEDURAL COMPLICATIONS",null,"MODERATE","N","N","N","N","N","N","N","N","PROBABLE","","NOT RECOVERED/NOT RESOLVED",2,"Y","","Y","Y","","","","",""],[418,"CDISCPILOT01","705","01-705-1281","Xanomeline High Dose",81,73,"65-80",2,"BLACK OR AFRICAN AMERICAN",2,"F","Y",19690,19781,19753,"",64,null,null,null,"","PRURITUS","PRURITUS",null,"PRURITUS",null,"HLT_0778",null,"HLGT_0695",null,"SKIN AND SUBCUTANEOUS TISSUE DISORDERS","SKIN AND SUBCUTANEOUS TISSUE DISORDERS",null,"MODERATE","N","N","N","N","N","N","N","N","POSSIBLE","","NOT RECOVERED/NOT RESOLVED",3,"Y","","","","","","","DERMATOLOGIC EVENTS",""],[419,"CDISCPILOT01","705","01-705-1292","Xanomeline Low Dose",54,60,"<65",1,"BLACK OR AFRICAN AMERICAN",2,"F","Y",19645,19856,19659,"",15,null,null,null,"","PRURITUS","ITCHY",null,"PRURITUS",null,"HLT_0778",null,"HLGT_0695",null,"SKIN AND SUBCUTANEOUS TISSUE DISORDERS","SKIN AND SUBCUTANEOUS TISSUE DISORDERS",null,"MILD","N","N","N","N","N","N","N","N","PROBABLE","","NOT RECOVERED/NOT RESOLVED",1,"Y","Y","Y","Y","","","","DERMATOLOGIC EVENTS","Y"],[420,"CDISCPILOT01","705","01-705-1292","Xanomeline Low Dose",54,60,"<65",1,"BLACK OR AFRICAN AMERICAN",2,"F","Y",19645,19856,19767,"",123,null,null,null,"","ERYTHEMA","ERYTHEMA",null,"ERYTHEMA",null,"HLT_0284",null,"HLGT_0192",null,"SKIN AND SUBCUTANEOUS TISSUE DISORDERS","SKIN AND SUBCUTANEOUS TISSUE DISORDERS",null,"MODERATE","N","N","N","N","N","N","N","N","PROBABLE","","NOT RECOVERED/NOT RESOLVED",2,"Y","","","Y","","","","DERMATOLOGIC EVENTS",""],[421,"CDISCPILOT01","705","01-705-1303","Xanomeline High Dose",81,72,"65-80",2,"WHITE",1,"M","Y",19708,19876,19759,"",52,19785,78,27,"DAY","PRURITUS","PRURITUS",null,"PRURITUS",null,"HLT_0778",null,"HLGT_0695",null,"SKIN AND SUBCUTANEOUS TISSUE DISORDERS","SKIN AND SUBCUTANEOUS TISSUE DISORDERS",null,"MILD","N","N","N","N","N","N","N","N","POSSIBLE","","NOT RECOVERED/NOT RESOLVED",1,"Y","Y","Y","Y","","","","DERMATOLOGIC EVENTS","Y"],[422,"CDISCPILOT01","705","01-705-1303","Xanomeline High Dose",81,72,"65-80",2,"WHITE",1,"M","Y",19708,19876,19759,"",52,19785,78,27,"DAY","RASH","RASH",null,"RASH",null,"HLT_0762",null,"HLGT_0198",null,"SKIN AND SUBCUTANEOUS TISSUE DISORDERS","SKIN AND SUBCUTANEOUS TISSUE DISORDERS",null,"MILD","N","N","N","N","N","N","N","N","POSSIBLE","","NOT RECOVERED/NOT RESOLVED",2,"Y","","","Y","","","","DERMATOLOGIC EVENTS",""],[423,"CDISCPILOT01","705","01-705-1303","Xanomeline High Dose",81,72,"65-80",2,"WHITE",1,"M","Y",19708,19876,19759,"",52,19785,78,27,"DAY","PRURITUS","PRURITUS",null,"PRURITUS",null,"HLT_0778",null,"HLGT_0695",null,"SKIN AND SUBCUTANEOUS TISSUE DISORDERS","SKIN AND SUBCUTANEOUS TISSUE DISORDERS",null,"MILD","N","N","N","N","N","N","N","N","POSSIBLE","","RECOVERED/RESOLVED",3,"Y","","","","","","","DERMATOLOGIC EVENTS",""],[424,"CDISCPILOT01","705","01-705-1303","Xanomeline High Dose",81,72,"65-80",2,"WHITE",1,"M","Y",19708,19876,19759,"",52,19785,78,27,"DAY","RASH","RASH",null,"RASH",null,"HLT_0762",null,"HLGT_0198",null,"SKIN AND SUBCUTANEOUS TISSUE DISORDERS","SKIN AND SUBCUTANEOUS TISSUE DISORDERS",null,"MODERATE","N","N","N","N","N","N","N","N","POSSIBLE","","RECOVERED/RESOLVED",4,"Y","","","","","","","DERMATOLOGIC EVENTS",""],[425,"CDISCPILOT01","705","01-705-1310","Xanomeline High Dose",81,74,"65-80",2,"WHITE",1,"F","Y",19664,19746,19676,"",13,null,null,null,"","RASH PRURITIC","PRURITIC RASH",null,"RASH PRURITIC",null,"HLT_0127",null,"HLGT_0753",null,"SKIN AND SUBCUTANEOUS TISSUE DISORDERS","SKIN AND SUBCUTANEOUS TISSUE DISORDERS",null,"MODERATE","N","N","N","N","N","N","N","N","POSSIBLE","","NOT RECOVERED/NOT RESOLVED",1,"Y","Y","Y","Y","","","","DERMATOLOGIC EVENTS","Y"],[426,"CDISCPILOT01","705","01-705-1310","Xanomeline High Dose",81,74,"65-80",2,"WHITE",1,"F","Y",19664,19746,19732,"",69,null,null,null,"","WOUND HAEMORRHAGE","WOUND BLEEDING",null,"WOUND HAEMORRHAGE",null,"HLT_0154",null,"HLGT_0162",null,"VASCULAR DISORDERS","VASCULAR DISORDERS",null,"MODERATE","N","N","N","N","N","N","N","N","POSSIBLE","","NOT RECOVERED/NOT RESOLVED",2,"Y","","Y","Y","","","","",""],[427,"CDISCPILOT01","705","01-705-1349","Placebo",0,86,">80",3,"WHITE",1,"F","Y",19427,19609,19456,"",30,19456,30,1,"DAY","NAUSEA","NAUSEA",null,"NAUSEA",null,"HLT_0742",null,"HLGT_0326",null,"GASTROINTESTINAL DISORDERS","GASTROINTESTINAL DISORDERS",null,"MILD","N","N","N","N","N","N","N","N","REMOTE","","RECOVERED/RESOLVED",1,"Y","Y","Y","Y","","","","",""],[428,"CDISCPILOT01","705","01-705-1349","Placebo",0,86,">80",3,"WHITE",1,"F","Y",19427,19609,19459,"",33,19459,33,1,"DAY","VOMITING","VOMITING",null,"VOMITING",null,"HLT_0016",null,"HLGT_0350",null,"GASTROINTESTINAL DISORDERS","GASTROINTESTINAL DISORDERS",null,"MILD","N","N","N","N","N","N","N","N","REMOTE","","RECOVERED/RESOLVED",2,"Y","","","Y","","","","",""],[429,"CDISCPILOT01","705","01-705-1349","Placebo",0,86,">80",3,"WHITE",1,"F","Y",19427,19609,19595,"",169,null,null,null,"","VENTRICULAR HYPERTROPHY","LEFT VENTRICULAR HYPERTROPHY",null,"VENTRICULAR HYPERTROPHY",null,"HLT_0104",null,"HLGT_0259",null,"CARDIAC DISORDERS","CARDIAC DISORDERS",null,"MILD","N","N","N","N","N","N","N","N","REMOTE","","NOT RECOVERED/NOT RESOLVED",3,"Y","","Y","Y","","","","",""],[430,"CDISCPILOT01","705","01-705-1349","Placebo",0,86,">80",3,"WHITE",1,"F","Y",19427,19609,19595,"",169,null,null,null,"","ELECTROCARDIOGRAM ST SEGMENT DEPRESSION","ST SEGMENT DEPRESSED",null,"ELECTROCARDIOGRAM ST SEGMENT DEPRESSION",null,"HLT_0610",null,"HLGT_0220",null,"INVESTIGATIONS","INVESTIGATIONS",null,"MILD","N","N","N","N","N","N","N","N","REMOTE","","NOT RECOVERED/NOT RESOLVED",4,"Y","","Y","Y","","","","",""],[431,"CDISCPILOT01","705","01-705-1393","Xanomeline Low Dose",54,84,">80",3,"WHITE",1,"F","Y",19243,19390,19255,"",13,19260,18,6,"DAY","ABDOMINAL PAIN","ABDOMINAL CRAMPS",null,"ABDOMINAL PAIN",null,"HLT_0217",null,"HLGT_0419",null,"GASTROINTESTINAL DISORDERS","GASTROINTESTINAL DISORDERS",null,"MILD","N","N","N","N","N","N","N","N","REMOTE","","RECOVERED/RESOLVED",1,"Y","Y","Y","Y","","","","",""],[432,"CDISCPILOT01","705","01-705-1393","Xanomeline Low Dose",54,84,">80",3,"WHITE",1,"F","Y",19243,19390,18966,"",-277,19409,167,444,"DAY","PRURITUS","PRURITUS",null,"PRURITUS",null,"HLT_0778",null,"HLGT_0695",null,"SKIN AND SUBCUTANEOUS TISSUE DISORDERS","SKIN AND SUBCUTANEOUS TISSUE DISORDERS",null,"MILD","N","N","N","N","N","N","N","N","PROBABLE","","NOT RECOVERED/NOT RESOLVED",2,"","","","","","","","DERMATOLOGIC EVENTS",""],[433,"CDISCPILOT01","705","01-705-1393","Xanomeline Low Dose",54,84,">80",3,"WHITE",1,"F","Y",19243,19390,19379,"",137,19382,140,4,"DAY","COLON CANCER","COLON CANCER",null,"COLON CANCER",null,"HLT_0597",null,"HLGT_0339",null,"NEOPLASMS BENIGN, MALIGNANT AND UNSPECIFIED (INCL CYSTS AND POLYPS)","NEOPLASMS BENIGN, MALIGNANT AND UNSPECIFIED (INCL CYSTS AND POLYPS)",null,"SEVERE","N","Y","N","N","N","Y","N","N","NONE","","RECOVERED/RESOLVED",3,"Y","","Y","Y","","","","",""],[434,"CDISCPILOT01","705","01-705-1393","Xanomeline Low Dose",54,84,">80",3,"WHITE",1,"F","Y",19243,19390,18966,"",-277,19409,167,444,"DAY","PRURITUS","PRURITUS",null,"PRURITUS",null,"HLT_0778",null,"HLGT_0695",null,"SKIN AND SUBCUTANEOUS TISSUE DISORDERS","SKIN AND SUBCUTANEOUS TISSUE DISORDERS",null,"MILD","N","N","N","N","N","N","N","N","PROBABLE","","RECOVERED/RESOLVED",4,"","","","","","","","DERMATOLOGIC EVENTS",""],[435,"CDISCPILOT01","705","01-705-1431","Xanomeline Low Dose",54,68,"65-80",2,"WHITE",1,"F","Y",19532,19711,19531,"",-1,null,null,null,"","RASH ERYTHEMATOUS","ERYTHEMATOUS RASH",null,"RASH ERYTHEMATOUS",null,"HLT_0336",null,"HLGT_0701",null,"SKIN AND SUBCUTANEOUS TISSUE DISORDERS","SKIN AND SUBCUTANEOUS TISSUE DISORDERS",null,"MILD","N","N","N","N","N","N","N","N","PROBABLE","","NOT RECOVERED/NOT RESOLVED",1,"","","","","","","","DERMATOLOGIC EVENTS",""],[436,"CDISCPILOT01","705","01-705-1431","Xanomeline Low Dose",54,68,"65-80",2,"WHITE",1,"F","Y",19532,19711,19543,"",12,19545,14,3,"DAY","ANXIETY","FEELING ANXIOUS",null,"ANXIETY",null,"HLT_0559",null,"HLGT_0570",null,"PSYCHIATRIC DISORDERS","PSYCHIATRIC DISORDERS",null,"MILD","N","N","N","N","N","N","N","N","POSSIBLE","","RECOVERED/RESOLVED",2,"Y","Y","Y","Y","","","","",""],[437,"CDISCPILOT01","706","01-706-1041","Placebo",0,64,"<65",1,"BLACK OR AFRICAN AMERICAN",2,"F","Y",19723,19932,19114,"D",-609,null,null,null,"","ANXIETY","ANXIETY ATTACK",null,"ANXIETY",null,"HLT_0559",null,"HLGT_0570",null,"PSYCHIATRIC DISORDERS","PSYCHIATRIC DISORDERS",null,"MODERATE","N","N","N","N","N","N","N","N","REMOTE","","NOT RECOVERED/NOT RESOLVED",1,"","","","","","","","",""],[438,"CDISCPILOT01","706","01-706-1041","Placebo",0,64,"<65",1,"BLACK OR AFRICAN AMERICAN",2,"F","Y",19723,19932,19730,"",8,19731,9,2,"DAY","DIARRHOEA","DIARRHEA",null,"DIARRHOEA",null,"HLT_0148",null,"HLGT_0588",null,"GASTROINTESTINAL DISORDERS","GASTROINTESTINAL DISORDERS",null,"MILD","N","N","N","N","N","N","N","N","REMOTE","","RECOVERED/RESOLVED",2,"Y","Y","Y","Y","","","","",""],[439,"CDISCPILOT01","706","01-