{"fileOID":"www.cdisc.org/StudyMSGv2/1/Define-XML_2.1.0/2023-06-21/adsl","creationDateTime":"2023-06-21T21:29:48","datasetJSONVersion":"1.0.0","originator":"CDISC ADaM MSG Team","sourceSystem":"Sponsor System","sourceSystemVersion":"1.0","clinicalData":{"studyOID":"TDF_ADaM.ADaMIG.1.1","metaDataVersionOID":"MDV.TDF_ADaM.ADaMIG.1.1","metaDataRef":"https://metadata.location.org/TDF_ADaM_ADaMIG11/define.xml","itemGroupData":{"IG.ADSL":{"records":254,"name":"ADSL","label":"Subject-Level Analysis Dataset","items":[{"OID":"ITEMGROUPDATASEQ","name":"ITEMGROUPDATASEQ","label":"Record Identifier","type":"integer"},{"OID":"IT.ADSL.STUDYID","name":"STUDYID","label":"Study Identifier","type":"string","length":12},{"OID":"IT.ADSL.USUBJID","name":"USUBJID","label":"Unique Subject Identifier","type":"string","length":11},{"OID":"IT.ADSL.SUBJID","name":"SUBJID","label":"Subject Identifier for the Study","type":"string","length":4},{"OID":"IT.ADSL.SITEID","name":"SITEID","label":"Study Site Identifier","type":"string","length":3},{"OID":"IT.ADSL.SITEGR1","name":"SITEGR1","label":"Pooled Site Group 1","type":"string","length":3},{"OID":"IT.ADSL.ARM","name":"ARM","label":"Description of Planned Arm","type":"string","length":20},{"OID":"IT.ADSL.TRT01P","name":"TRT01P","label":"Planned Treatment for Period 01","type":"string","length":20},{"OID":"IT.ADSL.TRT01PN","name":"TRT01PN","label":"Planned Treatment for Period 01 (N)","type":"float","length":8},{"OID":"IT.ADSL.TRT01A","name":"TRT01A","label":"Actual Treatment for Period 01","type":"string","length":20},{"OID":"IT.ADSL.TRT01AN","name":"TRT01AN","label":"Actual Treatment for Period 01 (N)","type":"float","length":8},{"OID":"IT.ADSL.TRTSDT","name":"TRTSDT","label":"Date of First Exposure to Treatment","type":"float","length":8,"displayFormat":"DATE9."},{"OID":"IT.ADSL.TRTEDT","name":"TRTEDT","label":"Date of Last Exposure to Treatment","type":"float","length":8,"displayFormat":"DATE9."},{"OID":"IT.ADSL.TRTDURD","name":"TRTDURD","label":"Total Treatment Duration (Days)","type":"float","length":8},{"OID":"IT.ADSL.AVGDD","name":"AVGDD","label":"Avg Daily Dose (as planned)","type":"float","length":8},{"OID":"IT.ADSL.CUMDOSE","name":"CUMDOSE","label":"Cumulative Dose (as planned)","type":"float","length":8},{"OID":"IT.ADSL.AGE","name":"AGE","label":"Age","type":"float","length":8},{"OID":"IT.ADSL.AGEGR1","name":"AGEGR1","label":"Pooled Age Group 1","type":"string","length":5},{"OID":"IT.ADSL.AGEGR1N","name":"AGEGR1N","label":"Pooled Age Group 1 (N)","type":"float","length":8},{"OID":"IT.ADSL.AGEU","name":"AGEU","label":"Age Units","type":"string","length":5},{"OID":"IT.ADSL.RACE","name":"RACE","label":"Race","type":"string","length":32},{"OID":"IT.ADSL.RACEN","name":"RACEN","label":"Race (N)","type":"float","length":8},{"OID":"IT.ADSL.SEX","name":"SEX","label":"Sex","type":"string","length":1},{"OID":"IT.ADSL.ETHNIC","name":"ETHNIC","label":"Ethnicity","type":"string","length":22},{"OID":"IT.ADSL.SAFFL","name":"SAFFL","label":"Safety Population Flag","type":"string","length":1},{"OID":"IT.ADSL.ITTFL","name":"ITTFL","label":"Intent-To-Treat Population Flag","type":"string","length":1},{"OID":"IT.ADSL.EFFFL","name":"EFFFL","label":"Efficacy Population Flag","type":"string","length":1},{"OID":"IT.ADSL.COMP8FL","name":"COMP8FL","label":"Completers of Week 8 Population Flag","type":"string","length":1},{"OID":"IT.ADSL.COMP16FL","name":"COMP16FL","label":"Completers of Week 16 Population Flag","type":"string","length":1},{"OID":"IT.ADSL.COMP24FL","name":"COMP24FL","label":"Completers of Week 24 Population Flag","type":"string","length":1},{"OID":"IT.ADSL.DISCONFL","name":"DISCONFL","label":"Did the Subject Discontinue the Study?","type":"string","length":1},{"OID":"IT.ADSL.DSRAEFL","name":"DSRAEFL","label":"Discontinued due to AE?","type":"string","length":1},{"OID":"IT.ADSL.DTHFL","name":"DTHFL","label":"Subject Died?","type":"string","length":1},{"OID":"IT.ADSL.BMIBL","name":"BMIBL","label":"Baseline BMI (kg/m^2)","type":"float","length":8},{"OID":"IT.ADSL.BMIBLGR1","name":"BMIBLGR1","label":"Pooled Baseline BMI Group 1","type":"string","length":6},{"OID":"IT.ADSL.HEIGHTBL","name":"HEIGHTBL","label":"Baseline Height (cm)","type":"float","length":8},{"OID":"IT.ADSL.WEIGHTBL","name":"WEIGHTBL","label":"Baseline Weight (kg)","type":"float","length":8},{"OID":"IT.ADSL.EDUCLVL","name":"EDUCLVL","label":"Years of Education","type":"float","length":8},{"OID":"IT.ADSL.DISONSDT","name":"DISONSDT","label":"Date of Onset of Disease","type":"float","length":8,"displayFormat":"DATE9."},{"OID":"IT.ADSL.DURDIS","name":"DURDIS","label":"Duration of Disease (Months)","type":"float","length":8},{"OID":"IT.ADSL.DURDSGR1","name":"DURDSGR1","label":"Pooled Disease Duration Group 1","type":"string","length":4},{"OID":"IT.ADSL.VISIT1DT","name":"VISIT1DT","label":"Date of Visit 1","type":"float","length":8,"displayFormat":"DATE9."},{"OID":"IT.ADSL.RFSTDTC","name":"RFSTDTC","label":"Subject Reference Start Date/Time","type":"string","length":20},{"OID":"IT.ADSL.RFENDTC","name":"RFENDTC","label":"Subject Reference End Date/Time","type":"string","length":20},{"OID":"IT.ADSL.VISNUMEN","name":"VISNUMEN","label":"End of Trt Visit (Vis 12 or Early Term.)","type":"float","length":8},{"OID":"IT.ADSL.RFENDT","name":"RFENDT","label":"Date of Discontinuation/Completion","type":"float","length":8,"displayFormat":"DATE9."},{"OID":"IT.ADSL.DCDECOD","name":"DCDECOD","label":"Standardized Disposition Term","type":"string","length":27},{"OID":"IT.ADSL.EOSSTT","name":"EOSSTT","label":"End of Study Status","type":"string","length":12},{"OID":"IT.ADSL.DCSREAS","name":"DCSREAS","label":"Reason for Discontinuation from Study","type":"string","length":18},{"OID":"IT.ADSL.MMSETOT","name":"MMSETOT","label":"MMSE Total","type":"float","length":8}],"itemData":[[1,"CDISCPILOT01","01-701-1015","1015","701","701","Placebo","Placebo",0,"Placebo",0,19725,19906,182,0,0,63,"<65",1,"YEARS","WHITE",1,"F","HISPANIC OR LATINO","Y","Y","Y","Y","Y","Y","","","",25.1,"25-<30",147.3,54.4,16,18382,43.9,">=12",19718,"2014-01-02","2014-07-02",12,19906,"COMPLETED","COMPLETED","",23],[2,"CDISCPILOT01","01-701-1023","1023","701","701","Placebo","Placebo",0,"Placebo",0,19210,19237,28,0,0,64,"<65",1,"YEARS","WHITE",1,"M","HISPANIC OR LATINO","Y","Y","Y","N","N","N","Y","Y","",30.4,">=30",162.6,80.3,14,16871,76.4,">=12",19196,"2012-08-05","2012-09-02",5,19238,"ADVERSE EVENT","DISCONTINUED","Adverse Event",23],[3,"CDISCPILOT01","01-701-1028","1028","701","701","Xanomeline High Dose","Xanomeline High Dose",81,"Xanomeline High Dose",81,19558,19737,180,77.7,13986,71,"65-80",2,"YEARS","WHITE",1,"M","NOT HISPANIC OR LATINO","Y","Y","Y","Y","Y","Y","","","",31.4,">=30",177.8,99.3,16,18247,42.8,">=12",19550,"2013-07-19","2014-01-14",12,19737,"COMPLETED","COMPLETED","",23],[4,"CDISCPILOT01","01-701-1033","1033","701","701","Xanomeline Low Dose","Xanomeline Low Dose",54,"Xanomeline Low Dose",54,19800,19813,14,54,756,74,"65-80",2,"YEARS","WHITE",1,"M","NOT HISPANIC OR LATINO","Y","Y","Y","N","N","N","Y","","",28.8,"25-<30",175.3,88.5,12,18111,55.3,">=12",19792,"2014-03-18","2014-04-14",5,19827,"STUDY TERMINATED BY SPONSOR","DISCONTINUED","Sponsor Decision",23],[5,"CDISCPILOT01","01-701-1034","1034","701","701","Xanomeline High Dose","Xanomeline High Dose",81,"Xanomeline High Dose",81,19905,20087,183,76.9,14067,77,"65-80",2,"YEARS","WHITE",1,"F","NOT HISPANIC OR LATINO","Y","Y","Y","Y","Y","Y","","","",26.1,"25-<30",154.9,62.6,9,18899,32.9,">=12",19898,"2014-07-01","2014-12-30",12,20087,"COMPLETED","COMPLETED","",21],[6,"CDISCPILOT01","01-701-1047","1047","701","701","Placebo","Placebo",0,"Placebo",0,19401,19426,26,0,0,85,">80",3,"YEARS","WHITE",1,"F","NOT HISPANIC OR LATINO","Y","Y","Y","N","N","N","Y","Y","",30.4,">=30",148.6,67.1,8,18104,42,">=12",19380,"2013-02-12","2013-03-29",6,19446,"ADVERSE EVENT","DISCONTINUED","Adverse Event",23],[7,"CDISCPILOT01","01-701-1097","1097","701","701","Xanomeline Low Dose","Xanomeline Low Dose",54,"Xanomeline Low Dose",54,19724,19913,190,54,10260,68,"65-80",2,"YEARS","WHITE",1,"M","NOT HISPANIC OR LATINO","Y","Y","Y","Y","Y","Y","","","",27.3,"25-<30",168.9,78,18,16701,99.1,">=12",19715,"2014-01-01","2014-07-09",12,19913,"COMPLETED","COMPLETED","",10],[8,"CDISCPILOT01","01-701-1111","1111","701","701","Xanomeline Low Dose","Xanomeline Low Dose",54,"Xanomeline Low Dose",54,19243,19252,10,54,540,81,">80",3,"YEARS","WHITE",1,"F","NOT HISPANIC OR LATINO","Y","Y","Y","N","N","N","Y","Y","",23.9,"<25",158.2,59.9,22,17991,40.7,">=12",19230,"2012-09-07","2012-09-17",4,19253,"ADVERSE EVENT","DISCONTINUED","Adverse Event",23],[9,"CDISCPILOT01","01-701-1115","1115","701","701","Xanomeline Low Dose","Xanomeline Low Dose",54,"Xanomeline Low Dose",54,19327,19381,55,54,2970,84,">80",3,"YEARS","WHITE",1,"M","NOT HISPANIC OR LATINO","Y","Y","Y","Y","N","N","Y","Y","",23.9,"<25",181.6,78.9,12,16219,101.9,">=12",19320,"2012-11-30","2013-01-23",8,19381,"ADVERSE EVENT","DISCONTINUED","Adverse Event",20],[10,"CDISCPILOT01","01-701-1118","1118","701","701","Placebo","Placebo",0,"Placebo",0,19794,19975,182,0,0,52,"<65",1,"YEARS","WHITE",1,"M","NOT HISPANIC OR LATINO","Y","Y","Y","Y","Y","Y","","","",21.9,"<25",180.3,71.2,14,18437,44.2,">=12",19781,"2014-03-12","2014-09-09",12,19975,"COMPLETED","COMPLETED","",20],[11,"CDISCPILOT01","01-701-1130","1130","701","701","Placebo","Placebo",0,"Placebo",0,19769,19951,183,0,0,84,">80",3,"YEARS","WHITE",1,"M","NOT HISPANIC OR LATINO","Y","Y","Y","Y","Y","Y","","","",27.6,"25-<30",169.7,79.4,12,18404,44.7,">=12",19763,"2014-02-15","2014-08-16",12,19951,"COMPLETED","COMPLETED","",19],[12,"CDISCPILOT01","01-701-1133","1133","701","701","Xanomeline High Dose","Xanomeline High Dose",81,"Xanomeline High Dose",81,19294,19476,183,77.2,14121,81,">80",3,"YEARS","WHITE",1,"F","NOT HISPANIC OR LATINO","Y","Y","Y","Y","Y","Y","","","",28.1,"25-<30",162.6,74.4,10,18332,31.5,">=12",19289,"2012-10-28","2013-04-29",12,19477,"COMPLETED","COMPLETED","",21],[13,"CDISCPILOT01","01-701-1146","1146","701","701","Xanomeline High Dose","Xanomeline High Dose",81,"Xanomeline High Dose",81,19498,19535,38,70.3,2673,75,"65-80",2,"YEARS","WHITE",1,"F","NOT HISPANIC OR LATINO","Y","Y","Y","N","N","N","Y","Y","",24.9,"<25",147.3,54,16,18218,41.7,">=12",19485,"2013-05-20","2013-06-30",7,19539,"ADVERSE EVENT","DISCONTINUED","Adverse Event",22],[14,"CDISCPILOT01","01-701-1148","1148","701","701","Xanomeline High Dose","Xanomeline High Dose",81,"Xanomeline High Dose",81,19593,19774,182,77.1,14040,57,"<65",1,"YEARS","WHITE",1,"M","NOT HISPANIC OR LATINO","Y","Y","Y","Y","Y","Y","","","",28.3,"25-<30",175.3,87.1,15,18608,32.1,">=12",19584,"2013-08-23","2014-02-20",12,19774,"COMPLETED","COMPLETED","",21],[15,"CDISCPILOT01","01-701-1153","1153","701","701","Placebo","Placebo",0,"Placebo",0,19624,19798,175,0,0,79,"65-80",2,"YEARS","WHITE",1,"F","NOT HISPANIC OR LATINO","Y","Y","Y","Y","Y","Y","","","",23.8,"<25",156.2,58.1,6,16569,99.8,">=12",19607,"2013-09-23","2014-04-01",12,19814,"COMPLETED","COMPLETED","",10],[16,"CDISCPILOT01","01-701-1180","1180","701","701","Xanomeline High Dose","Xanomeline High Dose",81,"Xanomeline High Dose",81,19401,19435,35,70.2,2457,56,"<65",1,"YEARS","WHITE",1,"M","NOT HISPANIC OR LATINO","Y","Y","Y","N","N","N","Y","Y","",27.6,"25-<30",180.3,89.8,16,17796,52.3,">=12",19386,"2013-02-12","2013-03-23",7,19440,"ADVERSE EVENT","DISCONTINUED","Adverse Event",19],[17,"CDISCPILOT01","01-701-1181","1181","701","701","Xanomeline High Dose","Xanomeline High Dose",81,"Xanomeline High Dose",81,19697,19701,5,54,270,79,"65-80",2,"YEARS","WHITE",1,"F","NOT HISPANIC OR LATINO","Y","Y","Y","N","N","N","Y","Y","",27.8,"25-<30",154.9,66.7,15,17770,63,">=12",19688,"2013-12-05","2013-12-12",4,19704,"ADVERSE EVENT","DISCONTINUED","Adverse Event",10],[18,"CDISCPILOT01","01-701-1188","1188","701","701","Xanomeline Low Dose","Xanomeline Low Dose",54,"Xanomeline Low Dose",54,19404,19441,38,54,2052,71,"65-80",2,"YEARS","WHITE",1,"M","NOT HISPANIC OR LATINO","Y","Y","Y","N","N","N","Y","Y","",32,">=30",177.8,101.2,16,16693,88.7,">=12",19392,"2013-02-15","2013-03-25",7,19442,"ADVERSE EVENT","DISCONTINUED","Adverse Event",23],[19,"CDISCPILOT01","01-701-1192","1192","701","701","Xanomeline Low Dose","Xanomeline Low Dose",54,"Xanomeline Low Dose",54,19196,19378,183,54,9882,80,"65-80",2,"YEARS","WHITE",1,"F","NOT HISPANIC OR LATINO","Y","Y","Y","Y","Y","Y","","","",27.8,"25-<30",151.1,63.5,12,17971,39.8,">=12",19182,"2012-07-22","2013-01-20",12,19378,"COMPLETED","COMPLETED","",23],[20,"CDISCPILOT01","01-701-1203","1203","701","701","Placebo","Placebo",0,"Placebo",0,19391,19573,183,0,0,81,">80",3,"YEARS","BLACK OR AFRICAN AMERICAN",2,"F","NOT HISPANIC OR LATINO","Y","Y","Y","Y","Y","Y","","","",25.9,"25-<30",160,66.2,13,18736,21.3,">=12",19383,"2013-02-02","2013-08-03",12,19573,"COMPLETED","COMPLETED","",21],[21,"CDISCPILOT01","01-701-1211","1211","701","701","Xanomeline Low Dose","Xanomeline Low Dose",54,"Xanomeline Low Dose",54,19312,19370,59,54,3186,76,"65-80",2,"YEARS","WHITE",1,"F","NOT HISPANIC OR LATINO","Y","Y","Y","Y","N","N","Y","","Y",17.7,"<25",160,45.4,12,18340,31.4,">=12",19296,"2012-11-15","2013-01-14",9,19372,"DEATH","DISCONTINUED","Death",12],[22,"CDISCPILOT01","01-701-1234","1234","701","701","Placebo","Placebo",0,"Placebo",0,19447,19623,177,0,0,69,"65-80",2,"YEARS","WHITE",1,"M","NOT HISPANIC OR LATINO","Y","Y","Y","Y","Y","Y","","","",23.4,"<25",181.6,77.1,18,17024,79.3,">=12",19437,"2013-03-30","2013-09-22",12,19623,"COMPLETED","COMPLETED","",20],[23,"CDISCPILOT01","01-701-1239","1239","701","701","Xanomeline High Dose","Xanomeline High Dose",81,"Xanomeline High Dose",81,19734,19914,181,76.8,13905,56,"<65",1,"YEARS","WHITE",1,"M","HISPANIC OR LATINO","Y","Y","Y","Y","Y","Y","","","",33.6,">=30",168.9,95.9,11,15971,123.2,">=12",19720,"2014-01-11","2014-07-11",12,19915,"COMPLETED","COMPLETED","",23],[24,"CDISCPILOT01","01-701-1275","1275","701","701","Xanomeline High Dose","Xanomeline High Dose",81,"Xanomeline High Dose",81,19761,19874,114,77.2,8802,61,"<65",1,"YEARS","AMERICAN INDIAN OR ALASKA NATIVE",6,"M","NOT HISPANIC OR LATINO","Y","Y","Y","Y","Y","N","Y","","",24.6,"<25",167.6,69,12,18887,28.3,">=12",19748,"2014-02-07","2014-06-14",10,19888,"WITHDRAWAL BY SUBJECT","DISCONTINUED","Withdrew Consent",22],[25,"CDISCPILOT01","01-701-1287","1287","701","701","Xanomeline High Dose","Xanomeline High Dose",81,"Xanomeline High Dose",81,19748,19930,183,76.3,13959,56,"<65",1,"YEARS","WHITE",1,"F","HISPANIC OR LATINO","Y","Y","Y","Y","Y","Y","","","",23.5,"<25",154.9,56.3,14,18200,50.6,">=12",19740,"2014-01-25","2014-07-26",12,19930,"COMPLETED","COMPLETED","",22],[26,"CDISCPILOT01","01-701-1294","1294","701","701","Xanomeline Low Dose","Xanomeline Low Dose",54,"Xanomeline Low Dose",54,19441,19523,83,54,4482,67,"65-80",2,"YEARS","WHITE",1,"M","NOT HISPANIC OR LATINO","Y","Y","Y","Y","N","N","Y","Y","",27.1,"25-<30",170.2,78.5,16,18879,18.3,">=12",19434,"2013-03-24","2013-06-14",9,19523,"ADVERSE EVENT","DISCONTINUED","Adverse Event",23],[27,"CDISCPILOT01","01-701-1302","1302","701","701","Xanomeline High Dose","Xanomeline High Dose",81,"Xanomeline High Dose",81,19599,19667,69,74,5103,61,"<65",1,"YEARS","WHITE",1,"M","NOT HISPANIC OR LATINO","Y","Y","Y","Y","N","N","Y","Y","",26,"25-<30",177.8,82.1,15,17206,78.4,">=12",19590,"2013-08-29","2013-11-05",9,19667,"ADVERSE EVENT","DISCONTINUED","Adverse Event",23],[28,"CDISCPILOT01","01-701-1317","1317","701","701","Xanomeline Low Dose","Xanomeline Low Dose",54,"Xanomeline Low Dose",54,19865,20047,183,54,9882,68,"65-80",2,"YEARS","WHITE",1,"M","NOT HISPANIC OR LATINO","Y","Y","Y","Y","Y","Y","","","",21.4,"<25",176.5,66.7,20,19617,7.8,"<12",19853,"2014-05-22","2014-11-20",12,20047,"COMPLETED","COMPLETED","",20],[29,"CDISCPILOT01","01-701-1324","1324","701","701","Xanomeline Low Dose","Xanomeline Low Dose",54,"Xanomeline Low Dose",54,19268,19450,183,54,9882,79,"65-80",2,"YEARS","WHITE",1,"M","NOT HISPANIC OR LATINO","Y","Y","Y","Y","Y","Y","","","",27.8,"25-<30",166.4,77.1,18,18181,35.2,">=12",19252,"2012-10-02","2013-04-02",12,19450,"COMPLETED","COMPLETED","",23],[30,"CDISCPILOT01","01-701-1341","1341","701","701","Xanomeline Low Dose","Xanomeline Low Dose",54,"Xanomeline Low Dose",54,19363,19384,22,54,1188,51,"<65",1,"YEARS","WHITE",1,"M","NOT HISPANIC OR LATINO","Y","Y","Y","N","N","N","Y","Y","",28.5,"25-<30",157.5,70.8,24,16957,78.6,">=12",19349,"2013-01-05","2013-02-07",5,19396,"ADVERSE EVENT","DISCONTINUED","Adverse Event",23],[31,"CDISCPILOT01","01-701-1345","1345","701","701","Placebo","Placebo",0,"Placebo",0,19639,19800,162,0,0,63,"<65",1,"YEARS","WHITE",1,"F","NOT HISPANIC OR LATINO","Y","Y","Y","Y","Y","Y","Y","","",18.6,"<25",174,56.3,15,18571,34.9,">=12",19632,"2013-10-08","2014-03-18",12,19800,"STUDY TERMINATED BY SPONSOR","DISCONTINUED","Sponsor Decision",23],[32,"CDISCPILOT01","01-701-1360","1360","701","701","Xanomeline High Dose","Xanomeline High Dose",81,"Xanomeline High Dose",81,19570,19575,6,54,324,67,"65-80",2,"YEARS","WHITE",1,"M","NOT HISPANIC OR LATINO","Y","Y","Y","N","N","N","Y","","",29,"25-<30",166.4,80.3,10,17868,55.7,">=12",19563,"2013-07-31","2013-08-14",4,19584,"PHYSICIAN DECISION","DISCONTINUED","Physician Decision",23],[33,"CDISCPILOT01","01-701-1363","1363","701","701","Placebo","Placebo",0,"Placebo",0,19508,19689,182,0,0,81,">80",3,"YEARS","BLACK OR AFRICAN AMERICAN",2,"F","NOT HISPANIC OR LATINO","Y","Y","Y","Y","Y","Y","","","",24.9,"<25",161.3,64.9,13,16729,91,">=12",19498,"2013-05-30","2013-11-27",12,19689,"COMPLETED","COMPLETED","",22],[34,"CDISCPILOT01","01-701-1383","1383","701","701","Xanomeline High Dose","Xanomeline High Dose",81,"Xanomeline High Dose",81,19393,19576,184,77.6,14283,72,"65-80",2,"YEARS","WHITE",1,"F","NOT HISPANIC OR LATINO","Y","Y","Y","Y","Y","Y","","","",31.6,">=30",163.8,84.8,12,17033,77.1,">=12",19380,"2013-02-04","2013-08-06",12,19576,"COMPLETED","COMPLETED","",22],[35,"CDISCPILOT01","01-701-1387","1387","701","701","Placebo","Placebo",0,"Placebo",0,19794,19807,14,0,0,87,">80",3,"YEARS","WHITE",1,"F","NOT HISPANIC OR LATINO","Y","Y","Y","N","N","N","Y","","",22.5,"<25",162.6,59.4,12,15934,126.3,">=12",19777,"2014-03-12","2014-03-25",4,19807,"PROTOCOL VIOLATION","DISCONTINUED","Protocol Violation",11],[36,"CDISCPILOT01","01-701-1392","1392","701","701","Placebo","Placebo",0,"Placebo",0,19294,19476,183,0,0,78,"65-80",2,"YEARS","WHITE",1,"M","NOT HISPANIC OR LATINO","Y","Y","Y","Y","Y","Y","","","",28.9,"25-<30",167.6,81.2,16,18377,29.8,">=12",19283,"2012-10-28","2013-04-28",12,19476,"COMPLETED","COMPLETED","",23],[37,"CDISCPILOT01","01-701-1415","1415","701","701","Placebo","Placebo",0,"Placebo",0,19624,19806,183,0,0,85,">80",3,"YEARS","WHITE",1,"M","NOT HISPANIC OR LATINO","Y","Y","Y","Y","Y","Y","","","",25,"25-<30",175.3,76.7,10,14043,183.1,">=12",19616,"2013-09-23","2014-03-24",12,19806,"COMPLETED","COMPLETED","",18],[38,"CDISCPILOT01","01-701-1429","1429","701","701","Xanomeline Low Dose","Xanomeline Low Dose",54,"Xanomeline Low Dose",54,19436,19478,43,54,2322,84,">80",3,"YEARS","WHITE",1,"F","NOT HISPANIC OR LATINO","Y","Y","Y","N","N","N","Y","","",25.7,"25-<30",148.6,56.7,12,17700,56.3,">=12",19414,"2013-03-19","2013-04-30",7,19478,"WITHDRAWAL BY SUBJECT","DISCONTINUED","Withdrew Consent",17],[39,"CDISCPILOT01","01-701-1440","1440","701","701","Placebo","Placebo",0,"Placebo",0,19578,19759,182,0,0,70,"65-80",2,"YEARS","WHITE",1,"M","NOT HISPANIC OR LATINO","Y","Y","Y","Y","Y","Y","","","",20.2,"<25",156.2,49.4,18,18724,27.6,">=12",19563,"2013-08-08","2014-02-05",12,19759,"COMPLETED","COMPLETED","",22],[40,"CDISCPILOT01","01-701-1442","1442","701","701","Xanomeline Low Dose","Xanomeline Low Dose",54,"Xanomeline Low Dose",54,19657,19839,183,54,9882,57,"<65",1,"YEARS","BLACK OR AFRICAN AMERICAN",2,"F","NOT HISPANIC OR LATINO","Y","Y","Y","Y","Y","Y","","","",40.1,">=30",162.6,106.1,12,16852,91.9,">=12",19648,"2013-10-26","2014-04-26",12,19839,"COMPLETED","COMPLETED","",15],[41,"CDISCPILOT01","01-701-1444","1444","701","701","Xanomeline High Dose","Xanomeline High Dose",81,"Xanomeline High Dose",81,19363,19401,39,71.3,2781,63,"<65",1,"YEARS","WHITE",1,"M","HISPANIC OR LATINO","Y","Y","Y","N","N","N","Y","Y","",34.5,">=30",171.5,101.6,14,17673,55.4,">=12",19358,"2013-01-05","2013-02-13",7,19402,"ADVERSE EVENT","DISCONTINUED","Adverse Event",23],[42,"CDISCPILOT01","01-702-1082","1082","702","900","Xanomeline Low Dose","Xanomeline Low Dose",54,"Xanomeline Low Dose",54,19565,19644,80,54,4320,84,">80",3,"YEARS","WHITE",1,"F","NOT HISPANIC OR LATINO","Y","Y","Y","Y","N","N","Y","","",null,"<25",154.9,null,18,17303,73.6,">=12",19542,"2013-07-26","2013-11-17",9,19679,"WITHDRAWAL BY SUBJECT","DISCONTINUED","Withdrew Consent",23],[43,"CDISCPILOT01","01-703-1042","1042","703","703","Placebo","Placebo",0,"Placebo",0,19419,19601,183,0,0,64,"<65",1,"YEARS","WHITE",1,"M","NOT HISPANIC OR LATINO","Y","Y","Y","Y","Y","Y","","","",23.5,"<25",177.8,74.4,12,17736,55.1,">=12",19412,"2013-03-02","2013-08-31",12,19601,"COMPLETED","COMPLETED","",23],[44,"CDISCPILOT01","01-703-1076","1076","703","703","Xanomeline High Dose","Xanomeline High Dose",81,"Xanomeline High Dose",81,19656,19716,61,75.2,4590,69,"65-80",2,"YEARS","WHITE",1,"M","NOT HISPANIC OR LATINO","Y","Y","Y","Y","N","N","Y","Y","",32,">=30",165.1,87.1,10,19232,13.7,">=12",19648,"2013-10-25","2013-12-24",9,19716,"ADVERSE EVENT","DISCONTINUED","Adverse Event",23],[45,"CDISCPILOT01","01-703-1086","1086","703","703","Xanomeline Low Dose","Xanomeline Low Dose",54,"Xanomeline Low Dose",54,19238,19331,94,54,5076,71,"65-80",2,"YEARS","WHITE",1,"M","NOT HISPANIC OR LATINO","Y","Y","Y","Y","Y","N","Y","Y","",25,"25-<30",195.6,95.7,17,18744,15.9,">=12",19227,"2012-09-02","2012-12-24",10,19351,"ADVERSE EVENT","DISCONTINUED","Adverse Event",17],[46,"CDISCPILOT01","01-703-1096","1096","703","703","Placebo","Placebo",0,"Placebo",0,19383,19433,51,0,0,81,">80",3,"YEARS","WHITE",1,"F","NOT HISPANIC OR LATINO","Y","Y","N","N","N","N","Y","","",31.7,">=30",160,81.2,6,17155,72,">=12",19346,"2013-01-25","2013-03-29",7,19446,"LOST TO FOLLOW-UP","DISCONTINUED","Lost to Follow-up",22],[47,"CDISCPILOT01","01-703-1100","1100","703","703","Placebo","Placebo",0,"Placebo",0,19430,19615,186,0,0,84,">80",3,"YEARS","WHITE",1,"F","NOT HISPANIC OR LATINO","Y","Y","Y","Y","Y","Y","","","",21.8,"<25",167.6,61.2,8,18598,26.9,">=12",19417,"2013-03-13","2013-09-14",12,19615,"COMPLETED","COMPLETED","",22],[48,"CDISCPILOT01","01-703-1119","1119","703","703","Xanomeline Low Dose","Xanomeline Low Dose",54,"Xanomeline Low Dose",54,19409,19522,114,54,6156,81,">80",3,"YEARS","WHITE",1,"F","NOT HISPANIC OR LATINO","Y","Y","Y","Y","Y","N","Y","Y","",18.4,"<25",160,47.2,16,16468,96.1,">=12",19391,"2013-02-20","2013-06-13",10,19522,"ADVERSE EVENT","DISCONTINUED","Adverse Event",14],[49,"CDISCPILOT01","01-703-1175","1175","703","703","Placebo","Placebo",0,"Placebo",0,19712,19718,7,0,0,75,"65-80",2,"YEARS","WHITE",1,"M","NOT HISPANIC OR LATINO","Y","Y","Y","N","N","N","Y","","",26.6,"25-<30",170.2,77.1,16,18524,38.8,">=12",19705,"2013-12-20","2013-12-31",4,19723,"PROTOCOL VIOLATION","DISCONTINUED","I/E Not Met",11],[50,"CDISCPILOT01","01-703-1182","1182","703","703","Xanomeline Low Dose","Xanomeline Low Dose",54,"Xanomeline Low Dose",54,19648,19703,56,54,3024,84,">80",3,"YEARS","WHITE",1,"M","NOT HISPANIC OR LATINO","Y","Y","Y","Y","N","N","Y","Y","",22.8,"<25",172.7,68,12,18897,24.4,">=12",19639,"2013-10-17","2013-12-12",8,19704,"ADVERSE EVENT","DISCONTINUED","Adverse Event",22],[51,"CDISCPILOT01","01-703-1197","1197","703","703","Xanomeline Low Dose","Xanomeline Low Dose",54,"Xanomeline Low Dose",54,19525,19538,14,54,756,76,"65-80",2,"YEARS","BLACK OR AFRICAN AMERICAN",2,"F","NOT HISPANIC OR LATINO","Y","Y","Y","N","N","N","Y","","",38.6,">=30",162.6,102.1,5,19003,16.7,">=12",19510,"2013-06-16","2013-07-22",4,19561,"WITHDRAWAL BY SUBJECT","DISCONTINUED","Withdrew Consent",12],[52,"CDISCPILOT01","01-703-1210","1210","703","703","Placebo","Placebo",0,"Placebo",0,19433,19607,175,0,0,72,"65-80",2,"YEARS","WHITE",1,"F","NOT HISPANIC OR LATINO","Y","Y","Y","Y","Y","Y","","","",23.8,"<25",144.8,49.9,12,18311,36.6,">=12",19425,"2013-03-16","2013-09-06",12,19607,"COMPLETED","COMPLETED","",19],[53,"CDISCPILOT01","01-703-1258","1258","703","703","Xanomeline High Dose","Xanomeline High Dose",81,"Xanomeline High Dose",81,19194,19369,176,77.3,13608,78,"65-80",2,"YEARS","WHITE",1,"F","NOT HISPANIC OR LATINO","Y","Y","Y","Y","Y","Y","Y","Y","",24.8,"<25",154.9,59.4,12,16849,76.7,">=12",19184,"2012-07-20","2013-01-21",12,19379,"ADVERSE EVENT","DISCONTINUED","Adverse Event",13],[54,"CDISCPILOT01","01-703-1279","1279","703","703","Xanomeline Low Dose","Xanomeline Low Dose",54,"Xanomeline Low Dose",54,19491,19512,22,54,1188,72,"65-80",2,"YEARS","WHITE",1,"F","NOT HISPANIC OR LATINO","Y","Y","N","N","N","N","Y","","",21.1,"<25",162.6,55.8,12,18472,33,">=12",19475,"2013-05-13","2013-06-22",4,19531,"WITHDRAWAL BY SUBJECT","DISCONTINUED","Withdrew Consent",14],[55,"CDISCPILOT01","01-703-1295","1295","703","703","Xanomeline High Dose","Xanomeline High Dose",81,"Xanomeline High Dose",81,19683,19832,150,78.3,11745,88,">80",3,"YEARS","WHITE",1,"F","NOT HISPANIC OR LATINO","Y","Y","Y","Y","Y","N","Y","","",22.7,"<25",157.5,56.3,8,19088,18.7,">=12",19655,"2013-11-21","2014-05-19",11,19862,"WITHDRAWAL BY SUBJECT","DISCONTINUED","Withdrew Consent",20],[56,"CDISCPILOT01","01-703-1299","1299","703","703","Placebo","Placebo",0,"Placebo",0,19248,19430,183,0,0,81,">80",3,"YEARS","WHITE",1,"F","NOT HISPANIC OR LATINO","Y","Y","Y","Y","Y","Y","","","",19.2,"<25",153.7,45.4,12,18886,11.8,"<12",19243,"2012-09-12","2013-03-13",12,19430,"COMPLETED","COMPLETED","",23],[57,"CDISCPILOT01","01-703-1335","1335","703","703","Xanomeline High Dose","Xanomeline High Dose",81,"Xanomeline High Dose",81,19799,19850,52,73.2,3807,67,"65-80",2,"YEARS","BLACK OR AFRICAN AMERICAN",2,"F","NOT HISPANIC OR LATINO","Y","Y","Y","N","N","N","Y","","",23,"<25",154.9,55.3,11,17561,73,">=12",19782,"2014-03-17","2014-05-24",7,19867,"PROTOCOL VIOLATION","DISCONTINUED","Protocol Violation",10],[58,"CDISCPILOT01","01-703-1379","1379","703","703","Xanomeline Low Dose","Xanomeline Low Dose",54,"Xanomeline Low Dose",54,19623,19803,181,54,9774,81,">80",3,"YEARS","BLACK OR AFRICAN AMERICAN",2,"F","NOT HISPANIC OR LATINO","Y","Y","Y","Y","Y","Y","","","",30.7,">=30",157.5,76.2,7,18161,47.7,">=12",19613,"2013-09-22","2014-03-21",12,19803,"COMPLETED","COMPLETED","",12],[59,"CDISCPILOT01","01-703-1403","1403","703","703","Xanomeline High Dose","Xanomeline High Dose",81,"Xanomeline High Dose",81,19339,19340,2,54,108,67,"65-80",2,"YEARS","WHITE",1,"M","NOT HISPANIC OR LATINO","Y","Y","N","N","N","N","Y","Y","",25.4,"25-<30",177.8,80.3,12,18603,24,">=12",19332,"2012-12-12","2012-12-19",4,19346,"ADVERSE EVENT","DISCONTINUED","Adverse Event",23],[60,"CDISCPILOT01","01-703-1439","1439","703","703","Xanomeline High Dose","Xanomeline High Dose",81,"Xanomeline High Dose",81,19794,19977,184,76.7,14121,76,"65-80",2,"YEARS","WHITE",1,"F","NOT HISPANIC OR LATINO","Y","Y","Y","Y","Y","Y","","","",24.8,"<25",160,63.5,12,18472,43.2,">=12",19786,"2014-03-12","2014-09-11",12,19977,"COMPLETED","COMPLETED","",16],[61,"CDISCPILOT01","01-704-1008","1008","704","704","Xanomeline High Dose","Xanomeline High Dose",81,"Xanomeline High Dose",81,19371,19410,40,70.2,2808,76,"65-80",2,"YEARS","WHITE",1,"F","NOT HISPANIC OR LATINO","Y","Y","Y","N","N","N","Y","Y","",21.3,"<25",148,46.7,12,18917,14.7,">=12",19364,"2013-01-13","2013-02-25",7,19414,"ADVERSE EVENT","DISCONTINUED","Adverse Event",21],[62,"CDISCPILOT01","01-704-1009","1009","704","704","Xanomeline Low Dose","Xanomeline Low Dose",54,"Xanomeline Low Dose",54,19597,19626,30,54,1620,83,">80",3,"YEARS","WHITE",1,"M","NOT HISPANIC OR LATINO","Y","Y","Y","N","N","N","Y","","",20.8,"<25",179.1,66.7,16,17931,54.5,">=12",19590,"2013-08-27","2013-10-02",5,19633,"WITHDRAWAL BY SUBJECT","DISCONTINUED","Withdrew Consent",21],[63,"CDISCPILOT01","01-704-1010","1010","704","704","Placebo","Placebo",0,"Placebo",0,19775,19912,138,0,0,80,"65-80",2,"YEARS","WHITE",1,"M","NOT HISPANIC OR LATINO","Y","Y","Y","Y","Y","N","Y","","",25.6,"25-<30",177.8,81,14,16803,97.2,">=12",19762,"2014-02-21","2014-07-09",11,19913,"WITHDRAWAL BY SUBJECT","DISCONTINUED","Withdrew Consent",17],[64,"CDISCPILOT01","01-704-1017","1017","704","704","Xanomeline High Dose","Xanomeline High Dose",81,"Xanomeline High Dose",81,19637,19680,44,72.4,3186,77,"65-80",2,"YEARS","WHITE",1,"M","NOT HISPANIC OR LATINO","Y","Y","Y","N","N","N","Y","Y","",21.8,"<25",170.2,63.1,12,18713,29.9,">=12",19621,"2013-10-06","2013-11-24",7,19686,"ADVERSE EVENT","DISCONTINUED","Adverse Event",21],[65,"CDISCPILOT01","01-704-1025","1025","704","704","Xanomeline Low Dose","Xanomeline Low Dose",54,"Xanomeline Low Dose",54,19628,19655,28,54,1512,81,">80",3,"YEARS","WHITE",1,"F","NOT HISPANIC OR LATINO","Y","Y","Y","N","N","N","Y","Y","",20.1,"<25",166,55.5,18,19055,18.6,">=12",19619,"2013-09-27","2013-11-29",6,19691,"ADVERSE EVENT","DISCONTINUED","Adverse Event",17],[66,"CDISCPILOT01","01-704-1065","1065","704","704","Xanomeline High Dose","Xanomeline High Dose",81,"Xanomeline High Dose",81,19655,19714,60,74.3,4455,75,"65-80",2,"YEARS","WHITE",1,"M","NOT HISPANIC OR LATINO","Y","Y","Y","Y","N","N","Y","Y","",24.8,"<25",180.3,80.7,12,18344,42.9,">=12",19648,"2013-10-24","2013-12-24",9,19716,"ADVERSE EVENT","DISCONTINUED","Adverse Event",20],[67,"CDISCPILOT01","01-704-1074","1074","704","704","Xanomeline High Dose","Xanomeline High Dose",81,"Xanomeline High Dose",81,19745,19802,58,72.2,4185,80,"65-80",2,"YEARS","WHITE",1,"F","NOT HISPANIC OR LATINO","Y","Y","Y","Y","N","N","Y","Y","",27,"25-<30",167.6,75.8,16,17927,59.7,">=12",19742,"2014-01-22","2014-03-31",8,19813,"ADVERSE EVENT","DISCONTINUED","Adverse Event",17],[68,"CDISCPILOT01","01-704-1093","1093","704","704","Xanomeline High Dose","Xanomeline High Dose",81,"Xanomeline High Dose",81,19432,19526,95,76.5,7263,79,"65-80",2,"YEARS","WHITE",1,"M","NOT HISPANIC OR LATINO","Y","Y","Y","Y","Y","N","Y","Y","",24.3,"<25",174,73.5,12,18460,31.3,">=12",19411,"2013-03-15","2013-06-20",10,19529,"ADVERSE EVENT","DISCONTINUED","Adverse Event",18],[69,"CDISCPILOT01","01-704-1114","1114","704","704","Xanomeline Low Dose","Xanomeline Low Dose",54,"Xanomeline Low Dose",54,19381,19546,166,54,8964,77,"65-80",2,"YEARS","WHITE",1,"M","NOT HISPANIC OR LATINO","Y","Y","Y","Y","Y","Y","Y","","",28.1,"25-<30",166.4,77.8,8,17250,69.6,">=12",19367,"2013-01-23","2013-07-08",12,19547,"WITHDRAWAL BY SUBJECT","DISCONTINUED","Withdrew Consent",20],[70,"CDISCPILOT01","01-704-1120","1120","704","704","Xanomeline Low Dose","Xanomeline Low Dose",54,"Xanomeline Low Dose",54,19694,19755,62,54,3348,71,"65-80",2,"YEARS","WHITE",1,"F","NOT HISPANIC OR LATINO","Y","Y","Y","Y","N","N","Y","Y","",23.9,"<25",147,51.7,13,17248,79.9,">=12",19680,"2013-12-02","2014-02-03",9,19757,"ADVERSE EVENT","DISCONTINUED","Adverse Event",16],[71,"CDISCPILOT01","01-704-1127","1127","704","704","Placebo","Placebo",0,"Placebo",0,19633,19813,181,0,0,84,">80",3,"YEARS","WHITE",1,"F","NOT HISPANIC OR LATINO","Y","Y","Y","Y","Y","Y","","","",15.1,"<25",165.1,41.1,12,17786,60.2,">=12",19617,"2013-10-02","2014-03-31",12,19813,"COMPLETED","COMPLETED","",22],[72,"CDISCPILOT01","01-704-1135","1135","704","704","Xanomeline Low Dose","Xanomeline Low Dose",54,"Xanomeline Low Dose",54,19662,19859,198,54,10692,74,"65-80",2,"YEARS","WHITE",1,"F","NOT HISPANIC OR LATINO","Y","Y","Y","Y","Y","Y","","","",24.6,"<25",161.8,64.4,14,18541,36.6,">=12",19654,"2013-10-31","2014-05-16",12,19859,"COMPLETED","COMPLETED","",23],[73,"CDISCPILOT01","01-704-1164","1164","704","704","Placebo","Placebo",0,"Placebo",0,19255,19452,198,0,0,67,"65-80",2,"YEARS","WHITE",1,"F","NOT HISPANIC OR LATINO","Y","Y","Y","Y","Y","Y","","","",20.1,"<25",157.5,49.9,10,18690,18.3,">=12",19247,"2012-09-19","2013-04-04",12,19452,"COMPLETED","COMPLETED","",16],[74,"CDISCPILOT01","01-704-1218","1218","704","704","Xanomeline Low Dose","Xanomeline Low Dose",54,"Xanomeline Low Dose",54,19316,19505,190,54,10260,81,">80",3,"YEARS","WHITE",1,"F","NOT HISPANIC OR LATINO","Y","Y","Y","Y","Y","Y","","","",26.2,"25-<30",144,54.4,12,18489,26.9,">=12",19308,"2012-11-19","2013-05-27",12,19505,"COMPLETED","COMPLETED","",22],[75,"CDISCPILOT01","01-704-1233","1233","704","704","Placebo","Placebo",0,"Placebo",0,19438,19553,116,0,0,87,">80",3,"YEARS","WHITE",1,"F","NOT HISPANIC OR LATINO","Y","Y","Y","Y","Y","N","Y","","",21.3,"<25",147.3,46.3,16,18642,25.8,">=12",19425,"2013-03-21","2013-07-14",11,19553,"WITHDRAWAL BY SUBJECT","DISCONTINUED","Withdrew Consent",15],[76,"CDISCPILOT01","01-704-1241","1241","704","704","Xanomeline High Dose","Xanomeline High Dose",81,"Xanomeline High Dose",81,19595,19640,46,74,3402,86,">80",3,"YEARS","WHITE",1,"M","NOT HISPANIC OR LATINO","Y","Y","Y","Y","N","N","Y","Y","",25.2,"25-<30",170.2,73,14,18833,24.7,">=12",19584,"2013-08-25","2013-10-31",8,19662,"ADVERSE EVENT","DISCONTINUED","Adverse Event",21],[77,"CDISCPILOT01","01-704-1260","1260","704","704","Placebo","Placebo",0,"Placebo",0,19235,19301,67,0,0,71,"65-80",2,"YEARS","WHITE",1,"F","NOT HISPANIC OR LATINO","Y","Y","Y","Y","N","N","Y","","",19.1,"<25",160,48.8,16,15673,116.8,">=12",19228,"2012-08-30","2013-01-18",9,19376,"WITHDRAWAL BY SUBJECT","DISCONTINUED","Withdrew Consent",16],[78,"CDISCPILOT01","01-704-1266","1266","704","704","Xanomeline High Dose","Xanomeline High Dose",81,"Xanomeline High Dose",81,19644,19698,55,73.6,4050,82,">80",3,"YEARS","WHITE",1,"M","NOT HISPANIC OR LATINO","Y","Y","Y","Y","N","N","Y","Y","",29.2,"25-<30",174,88.5,12,18963,22.1,">=12",19636,"2013-10-13","2013-12-06",8,19698,"ADVERSE EVENT","DISCONTINUED","Adverse Event",16],[79,"CDISCPILOT01","01-704-1323","1323","704","704","Xanomeline Low Dose","Xanomeline Low Dose",54,"Xanomeline Low Dose",54,19547,19575,29,54,1566,68,"65-80",2,"YEARS","WHITE",1,"F","NOT HISPANIC OR LATINO","Y","Y","N","N","N","N","Y","Y","",22.7,"<25",162.6,59.9,16,18344,38.7,">=12",19522,"2013-07-08","2013-08-08",7,19578,"ADVERSE EVENT","DISCONTINUED","Adverse Event",23],[80,"CDISCPILOT01","01-704-1325","1325","704","704","Xanomeline Low Dose","Xanomeline Low Dose",54,"Xanomeline Low Dose",54,19836,19908,73,54,3942,81,">80",3,"YEARS","WHITE",1,"M","NOT HISPANIC OR LATINO","Y","Y","Y","Y","Y","N","Y","","",22.3,"<25",175.3,68.5,16,17838,65.4,">=12",19829,"2014-04-23","2014-08-06",10,19941,"PROTOCOL VIOLATION","DISCONTINUED","Protocol Violation",18],[81,"CDISCPILOT01","01-704-1332","1332","704","704","Xanomeline High Dose","Xanomeline High Dose",81,"Xanomeline High Dose",81,19701,19768,68,75,5103,80,"65-80",2,"YEARS","WHITE",1,"M","NOT HISPANIC OR LATINO","Y","Y","Y","Y","N","N","Y","Y","",26.2,"25-<30",173,78.5,9,18940,24.5,">=12",19686,"2013-12-09","2014-02-16",9,19770,"ADVERSE EVENT","DISCONTINUED","Adverse Event",22],[82,"CDISCPILOT01","01-704-1351","1351","704","704","Placebo","Placebo",0,"Placebo",0,19643,19831,189,0,0,70,"65-80",2,"YEARS","WHITE",1,"M","NOT HISPANIC OR LATINO","Y","Y","Y","Y","Y","Y","","","",23.9,"<25",175.3,73.5,12,19246,12.6,">=12",19627,"2013-10-12","2014-04-18",12,19831,"COMPLETED","COMPLETED","",22],[83,"CDISCPILOT01","01-704-1388","1388","704","704","Placebo","Placebo",0,"Placebo",0,19334,19520,187,0,0,81,">80",3,"YEARS","WHITE",1,"M","NOT HISPANIC OR LATINO","Y","Y","Y","Y","Y","Y","","","",18.8,"<25",176.5,58.5,11,18561,25.1,">=12",19325,"2012-12-07","2013-06-19",12,19528,"COMPLETED","COMPLETED","",20],[84,"CDISCPILOT01","01-704-1435","1435","704","704","Placebo","Placebo",0,"Placebo",0,19314,19367,54,0,0,74,"65-80",2,"YEARS","WHITE",1,"M","NOT HISPANIC OR LATINO","Y","Y","Y","Y","N","N","Y","","",27.1,"25-<30",167.6,76.2,16,18282,33.4,">=12",19298,"2012-11-17","2013-01-12",8,19370,"WITHDRAWAL BY SUBJECT","DISCONTINUED","Withdrew Consent",20],[85,"CDISCPILOT01","01-704-1445","1445","704","704","Placebo","Placebo",0,"Placebo",0,19854,20028,175,0,0,75,"65-80",2,"YEARS","WHITE",1,"M","NOT HISPANIC OR LATINO","Y","Y","Y","Y","Y","Y","Y","","Y",22.8,"<25",177.8,72.1,12,19308,17.6,">=12",19844,"2014-05-11","2014-11-01",12,20028,"DEATH","DISCONTINUED","Death",23],[86,"CDISCPILOT01","01-705-1018","1018","705","705","Placebo","Placebo",0,"Placebo",0,19544,19551,8,0,0,69,"65-80",2,"YEARS","WHITE",1,"F","NOT HISPANIC OR LATINO","Y","Y","N","N","N","N","Y","","",22.6,"<25",147.3,49,6,18222,43.3,">=12",19539,"2013-07-05","2013-07-12",4,19551,"WITHDRAWAL BY SUBJECT","DISCONTINUED","Withdrew Consent",18],[87,"CDISCPILOT01","01-705-1031","1031","705","705","Xanomeline Low Dose","Xanomeline Low Dose",54,"Xanomeline Low Dose",54,19689,19854,166,54,8964,56,"<65",1,"YEARS","WHITE",1,"F","HISPANIC OR LATINO","Y","Y","Y","Y","Y","Y","Y","","",28.9,"25-<30",157.5,71.7,16,18591,35.8,">=12",19679,"2013-11-27","2014-05-11",12,19854,"LOST TO FOLLOW-UP","DISCONTINUED","Lost to Follow-up",23],[88,"CDISCPILOT01","01-705-1059","1059","705","705","Placebo","Placebo",0,"Placebo",0,19575,19697,123,0,0,66,"65-80",2,"YEARS","WHITE",1,"F","NOT HISPANIC OR LATINO","Y","Y","Y","Y","Y","N","Y","Y","",20.4,"<25",162.6,54,12,18098,48.5,">=12",19572,"2013-08-05","2013-12-05",10,19697,"ADVERSE EVENT","DISCONTINUED","Adverse Event",16],[89,"CDISCPILOT01","01-705-1186","1186","705","705","Placebo","Placebo",0,"Placebo",0,19731,19749,19,0,0,84,">80",3,"YEARS","WHITE",1,"F","NOT HISPANIC OR LATINO","Y","Y","N","N","N","N","Y","","",19.7,"<25",142.2,39.9,12,18811,30.1,">=12",19726,"2014-01-08","2014-02-07",5,19761,"PHYSICIAN DECISION","DISCONTINUED","Physician Decision",15],[90,"CDISCPILOT01","01-705-1199","1199","705","705","Xanomeline Low Dose","Xanomeline Low Dose",54,"Xanomeline Low Dose",54,19617,19629,13,54,702,87,">80",3,"YEARS","WHITE",1,"M","NOT HISPANIC OR LATINO","Y","Y","Y","N","N","N","Y","Y","",24.8,"<25",161.3,64.4,20,17417,72.1,">=12",19612,"2013-09-16","2013-09-29",4,19630,"ADVERSE EVENT","DISCONTINUED","Adverse Event",19],[91,"CDISCPILOT01","01-705-1280","1280","705","705","Xanomeline High Dose","Xanomeline High Dose",81,"Xanomeline High Dose",81,19740,19929,190,76.9,14607,56,"<65",1,"YEARS","WHITE",1,"F","NOT HISPANIC OR LATINO","Y","Y","Y","Y","Y","Y","","","",28,"25-<30",157.5,69.4,12,19362,12.3,">=12",19734,"2014-01-17","2014-07-25",12,19929,"COMPLETED","COMPLETED","",23],[92,"CDISCPILOT01","01-705-1281","1281","705","705","Xanomeline High Dose","Xanomeline High Dose",81,"Xanomeline High Dose",81,19690,19781,92,75.7,6966,73,"65-80",2,"YEARS","BLACK OR AFRICAN AMERICAN",2,"F","NOT HISPANIC OR LATINO","Y","Y","Y","Y","Y","N","Y","Y","",31.4,">=30",152.4,73,12,19302,12.7,">=12",19688,"2013-11-28","2014-03-17",10,19799,"ADVERSE EVENT","DISCONTINUED","Adverse Event",23],[93,"CDISCPILOT01","01-705-1282","1282","705","705","Placebo","Placebo",0,"Placebo",0,19353,19533,181,0,0,70,"65-80",2,"YEARS","BLACK OR AFRICAN AMERICAN",2,"F","NOT HISPANIC OR LATINO","Y","Y","Y","Y","Y","Y","","","",30.4,">=30",154.9,73,12,17141,72.6,">=12",19350,"2012-12-26","2013-06-24",12,19533,"COMPLETED","COMPLETED","",10],[94,"CDISCPILOT01","01-705-1292","1292","705","705","Xanomeline Low Dose","Xanomeline Low Dose",54,"Xanomeline Low Dose",54,19645,19856,212,54,11448,60,"<65",1,"YEARS","BLACK OR AFRICAN AMERICAN",2,"F","NOT HISPANIC OR LATINO","Y","Y","Y","Y","Y","Y","","","",26.8,"25-<30",167.6,75.3,8,19264,12.5,">=12",19642,"2013-10-14","2014-05-14",12,19857,"COMPLETED","COMPLETED","",23],[95,"CDISCPILOT01","01-705-1303","1303","705","705","Xanomeline High Dose","Xanomeline High Dose",81,"Xanomeline High Dose",81,19708,19876,169,78.6,13284,72,"65-80",2,"YEARS","WHITE",1,"M","NOT HISPANIC OR LATINO","Y","Y","Y","Y","Y","N","Y","Y","",27.5,"25-<30",175.3,84.4,12,18611,35.9,">=12",19702,"2013-12-16","2014-06-02",11,19876,"ADVERSE EVENT","DISCONTINUED","Adverse Event",19],[96,"CDISCPILOT01","01-705-1310","1310","705","705","Xanomeline High Dose","Xanomeline High Dose",81,"Xanomeline High Dose",81,19664,19746,83,74.2,6156,74,"65-80",2,"YEARS","WHITE",1,"F","NOT HISPANIC OR LATINO","Y","Y","Y","Y","N","N","Y","Y","",22.7,"<25",146.1,48.5,12,18930,23.9,">=12",19657,"2013-11-02","2014-01-23",9,19746,"ADVERSE EVENT","DISCONTINUED","Adverse Event",20],[97,"CDISCPILOT01","01-705-1349","1349","705","705","Placebo","Placebo",0,"Placebo",0,19427,19609,183,0,0,86,">80",3,"YEARS","WHITE",1,"F","HISPANIC OR LATINO","Y","Y","Y","Y","Y","Y","","","",21.2,"<25",144.8,44.5,10,17248,71.2,">=12",19413,"2013-03-10","2013-09-08",12,19609,"COMPLETED","COMPLETED","",15],[98,"CDISCPILOT01","01-705-1377","1377","705","705","Xanomeline High Dose","Xanomeline High Dose",81,"Xanomeline High Dose",81,19727,19789,63,71.6,4509,63,"<65",1,"YEARS","BLACK OR AFRICAN AMERICAN",2,"F","NOT HISPANIC OR LATINO","Y","Y","N","N","N","N","Y","","",21,"<25",165.1,57.2,6,18997,23.8,">=12",19721,"2014-01-04","2014-03-07",7,19789,"WITHDRAWAL BY SUBJECT","DISCONTINUED","Withdrew Consent",14],[99,"CDISCPILOT01","01-705-1382","1382","705","705","Xanomeline High Dose","Xanomeline High Dose",81,"Xanomeline High Dose",81,19491,19491,1,54,54,82,">80",3,"YEARS","WHITE",1,"M","NOT HISPANIC OR LATINO","Y","Y","N","N","N","N","Y","","",33.2,">=30",170.2,96.2,12,19116,12.2,">=12",19487,"2013-05-13","2013-05-13",4,19491,"PROTOCOL VIOLATION","DISCONTINUED","I/E Not Met",19],[100,"CDISCPILOT01","01-705-1393","1393","705","705","Xanomeline Low Dose","Xanomeline Low Dose",54,"Xanomeline Low Dose",54,19243,19390,148,54,7992,84,">80",3,"YEARS","WHITE",1,"F","NOT HISPANIC OR LATINO","Y","Y","Y","Y","Y","N","Y","Y","",26.9,"25-<30",144.8,56.3,13,16322,95.8,">=12",19238,"2012-09-07","2013-02-20",11,19409,"ADVERSE EVENT","DISCONTINUED","Adverse Event",19],[101,"CDISCPILOT01","01-705-1431","1431","705","705","Xanomeline Low Dose","Xanomeline Low Dose",54,"Xanomeline Low Dose",54,19532,19711,180,54,9720,68,"65-80",2,"YEARS","WHITE",1,"F","HISPANIC OR LATINO","Y","Y","Y","Y","Y","Y","","","",24.2,"<25",149.9,54.4,12,18447,35.4,">=12",19525,"2013-06-23","2013-12-19",12,19711,"COMPLETED","COMPLETED","",21],[102,"CDISCPILOT01","01-706-1041","1041","706","900","Placebo","Placebo",0,"Placebo",0,19723,19932,210,0,0,64,"<65",1,"YEARS","BLACK OR AFRICAN AMERICAN",2,"F","NOT HISPANIC OR LATINO","Y","Y","Y","Y","Y","Y","","","",20.9,"<25",167.6,58.7,15,18949,25.1,">=12",19713,"2013-12-31","2014-07-29",12,19933,"COMPLETED","COMPLETED","",20],[103,"CDISCPILOT01","01-706-1049","1049","706","900","Xanomeline High Dose","Xanomeline High Dose",81,"Xanomeline High Dose",81,19492,19527,36,69.8,2511,60,"<65",1,"YEARS","WHITE",1,"F","NOT HISPANIC OR LATINO","Y","Y","Y","N","N","N","Y","Y","",20.6,"<25",167.6,57.8,11,18384,36,">=12",19478,"2013-05-14","2013-06-25",7,19534,"ADVERSE EVENT","DISCONTINUED","Adverse Event",16],[104,"CDISCPILOT01","01-706-1384","1384","706","900","Xanomeline Low Dose","Xanomeline Low Dose",54,"Xanomeline Low Dose",54,19251,19260,10,54,540,74,"65-80",2,"YEARS","WHITE",1,"F","NOT HISPANIC OR LATINO","Y","Y","Y","N","N","N","Y","Y","",30.6,">=30",157.5,76,8,17656,51.7,">=12",19230,"2012-09-15","2012-09-29",4,19265,"ADVERSE EVENT","DISCONTINUED","Adverse Event",20],[105,"CDISCPILOT01","01-707-1037","1037","707","900","Xanomeline Low Dose","Xanomeline Low Dose",54,"Xanomeline Low Dose",54,19712,19716,5,54,270,72,"65-80",2,"YEARS","WHITE",1,"F","NOT HISPANIC OR LATINO","Y","Y","Y","N","N","N","Y","","",23.8,"<25",152.4,55.3,14,17899,59.3,">=12",19704,"2013-12-20","2014-01-08",4,19731,"WITHDRAWAL BY SUBJECT","DISCONTINUED","Withdrew Consent",24],[106,"CDISCPILOT01","01-707-1206","1206","707","900","Placebo","Placebo",0,"Placebo",0,19659,19839,181,0,0,65,"65-80",2,"YEARS","WHITE",1,"M","NOT HISPANIC OR LATINO","Y","Y","Y","Y","Y","Y","","","",24.6,"<25",174,74.4,7,19228,13.9,">=12",19651,"2013-10-28","2014-04-27",12,19840,"COMPLETED","COMPLETED","",21],[107,"CDISCPILOT01","01-708-1019","1019","708","708","Xanomeline Low Dose","Xanomeline Low Dose",54,"Xanomeline Low Dose",54,19712,19724,13,54,702,68,"65-80",2,"YEARS","WHITE",1,"M","NOT HISPANIC OR LATINO","Y","Y","Y","N","N","N","Y","Y","",22.2,"<25",182.9,74.4,18,17154,83.7,">=12",19702,"2013-12-20","2014-01-23",4,19746,"ADVERSE EVENT","DISCONTINUED","Adverse Event",17],[108,"CDISCPILOT01","01-708-1032","1032","708","708","Xanomeline Low Dose","Xanomeline Low Dose",54,"Xanomeline Low Dose",54,19398,19418,21,54,1134,62,"<65",1,"YEARS","WHITE",1,"M","NOT HISPANIC OR LATINO","Y","Y","Y","N","N","N","Y","Y","",26.1,"25-<30",177.8,82.6,12,15537,126.7,">=12",19391,"2013-02-09","2013-03-09",5,19426,"ADVERSE EVENT","DISCONTINUED","Adverse Event",18],[109,"CDISCPILOT01","01-708-1084","1084","708","708","Xanomeline Low Dose","Xanomeline Low Dose",54,"Xanomeline Low Dose",54,19487,19673,187,54,10098,73,"65-80",2,"YEARS","WHITE",1,"F","NOT HISPANIC OR LATINO","Y","Y","Y","Y","Y","Y","","","",17.9,"<25",167.6,50.4,12,18378,36.2,">=12",19479,"2013-05-09","2013-11-11",12,19673,"COMPLETED","COMPLETED","",23],[110,"CDISCPILOT01","01-708-1087","1087","708","708","Placebo","Placebo",0,"Placebo",0,19288,19476,189,0,0,74,"65-80",2,"YEARS","WHITE",1,"F","NOT HISPANIC OR LATINO","Y","Y","Y","Y","Y","Y","","","",26.9,"25-<30",157.5,66.7,12,17777,49.1,">=12",19272,"2012-10-22","2013-04-28",12,19476,"COMPLETED","COMPLETED","",17],[111,"CDISCPILOT01","01-708-1158","1158","708","708","Placebo","Placebo",0,"Placebo",0,19762,19803,42,0,0,81,">80",3,"YEARS","WHITE",1,"F","NOT HISPANIC OR LATINO","Y","Y","Y","N","N","N","Y","Y","",27.8,"25-<30",162.6,73.5,8,18475,42.1,">=12",19755,"2014-02-08","2014-03-22",7,19804,"ADVERSE EVENT","DISCONTINUED","Adverse Event",16],[112,"CDISCPILOT01","01-708-1171","1171","708","708","Placebo","Placebo",0,"Placebo",0,19333,19513,181,0,0,77,"65-80",2,"YEARS","WHITE",1,"F","NOT HISPANIC OR LATINO","Y","Y","Y","Y","Y","Y","","","",20.8,"<25",162.6,54.9,9,18529,26.1,">=12",19322,"2012-12-06","2013-06-04",12,19513,"COMPLETED","COMPLETED","",13],[113,"CDISCPILOT01","01-708-1178","1178","708","708","Xanomeline High Dose","Xanomeline High Dose",81,"Xanomeline High Dose",81,19721,19819,99,75.3,7452,77,"65-80",2,"YEARS","BLACK OR AFRICAN AMERICAN",2,"F","NOT HISPANIC OR LATINO","Y","Y","Y","Y","N","N","Y","","",23,"<25",165.1,62.8,8,17754,64.1,">=12",19705,"2013-12-29","2014-04-06",9,19819,"PHYSICIAN DECISION","DISCONTINUED","Physician Decision",10],[114,"CDISCPILOT01","01-708-1213","1213","708","708","Xanomeline High Dose","Xanomeline High Dose",81,"Xanomeline High Dose",81,19398,19411,14,54,756,76,"65-80",2,"YEARS","WHITE",1,"F","NOT HISPANIC OR LATINO","Y","Y","N","N","N","N","Y","Y","",15.3,"<25",165.1,41.7,12,18664,23.9,">=12",19390,"2013-02-09","2013-02-26",5,19415,"ADVERSE EVENT","DISCONTINUED","Adverse Event",14],[115,"CDISCPILOT01","01-708-1216","1216","708","708","Xanomeline High Dose","Xanomeline High Dose",81,"Xanomeline High Dose",81,19290,19326,37,69.3,2565,78,"65-80",2,"YEARS","WHITE",1,"M","NOT HISPANIC OR LATINO","Y","Y","Y","N","N","N","Y","Y","",25.9,"25-<30",172.7,77.1,12,15171,135,">=12",19280,"2012-10-24","2012-12-06",7,19333,"ADVERSE EVENT","DISCONTINUED","Adverse Event",17],[116,"CDISCPILOT01","01-708-1236","1236","708","708","Xanomeline High Dose","Xanomeline High Dose",81,"Xanomeline High Dose",81,19622,19622,1,54,54,86,">80",3,"YEARS","WHITE",1,"F","NOT HISPANIC OR LATINO","Y","Y","N","N","N","N","Y","","",23.4,"<25",152.4,54.4,8,19244,12,">=12",19609,"2013-09-21","2013-09-26",4,19627,"WITHDRAWAL BY SUBJECT","DISCONTINUED","Withdrew Consent",22],[117,"CDISCPILOT01","01-708-1253","1253","708","708","Placebo","Placebo",0,"Placebo",0,19485,19667,183,0,0,61,"<65",1,"YEARS","WHITE",1,"M","NOT HISPANIC OR LATINO","Y","Y","Y","Y","Y","Y","","","",22.1,"<25",185.4,75.8,12,17968,49.5,">=12",19474,"2013-05-07","2013-11-05",12,19667,"COMPLETED","COMPLETED","",12],[118,"CDISCPILOT01","01-708-1272","1272","708","708","Xanomeline Low Dose","Xanomeline Low Dose",54,"Xanomeline Low Dose",54,19395,19439,45,54,2430,82,">80",3,"YEARS","WHITE",1,"M","NOT HISPANIC OR LATINO","Y","Y","Y","Y","N","N","Y","","",24.9,"<25",172.7,74.4,11,17020,77.6,">=12",19380,"2013-02-06","2013-04-04",8,19452,"WITHDRAWAL BY SUBJECT","DISCONTINUED","Withdrew Consent",15],[119,"CDISCPILOT01","01-708-1286","1286","708","708","Placebo","Placebo",0,"Placebo",0,19611,19790,180,0,0,80,"65-80",2,"YEARS","BLACK OR AFRICAN AMERICAN",2,"F","NOT HISPANIC OR LATINO","Y","Y","Y","Y","Y","Y","","","",32.8,">=30",152.4,76.2,12,15251,142.8,">=12",19595,"2013-09-10","2014-03-08",12,19790,"COMPLETED","COMPLETED","",10],[120,"CDISCPILOT01","01-708-1296","1296","708","708","Placebo","Placebo",0,"Placebo",0,19523,19704,182,0,0,57,"<65",1,"YEARS","BLACK OR AFRICAN AMERICAN",2,"M","NOT HISPANIC OR LATINO","Y","Y","Y","Y","Y","Y","","","",27.9,"25-<30",170.2,80.7,18,18296,40.1,">=12",19516,"2013-06-14","2013-12-12",12,19704,"COMPLETED","COMPLETED","",16],[121,"CDISCPILOT01","01-708-1297","1297","708","708","Xanomeline Low Dose","Xanomeline Low Dose",54,"Xanomeline Low Dose",54,19383,19481,99,54,5346,61,"<65",1,"YEARS","WHITE",1,"M","NOT HISPANIC OR LATINO","Y","Y","Y","Y","Y","N","Y","Y","",23,"<25",185.4,78.9,13,17589,58.6,">=12",19373,"2013-01-25","2013-05-08",10,19486,"ADVERSE EVENT","DISCONTINUED","Adverse Event",23],[122,"CDISCPILOT01","01-708-1316","1316","708","708","Placebo","Placebo",0,"Placebo",0,19593,19783,191,0,0,74,"65-80",2,"YEARS","WHITE",1,"F","NOT HISPANIC OR LATINO","Y","Y","Y","Y","Y","Y","","","",23.4,"<25",160,59.9,12,18847,24.3,">=12",19585,"2013-08-23","2014-03-01",12,19783,"COMPLETED","COMPLETED","",22],[123,"CDISCPILOT01","01-708-1336","1336","708","708","Xanomeline High Dose","Xanomeline High Dose",81,"Xanomeline High Dose",81,19334,19514,181,76.7,13878,73,"65-80",2,"YEARS","WHITE",1,"M","NOT HISPANIC OR LATINO","Y","Y","Y","Y","Y","Y","","","",24.1,"<25",190.5,87.5,18,15675,119.7,">=12",19318,"2012-12-07","2013-06-05",12,19514,"COMPLETED","COMPLETED","",15],[124,"CDISCPILOT01","01-708-1342","1342","708","708","Placebo","Placebo",0,"Placebo",0,19356,19537,182,0,0,59,"<65",1,"YEARS","WHITE",1,"F","NOT HISPANIC OR LATINO","Y","Y","Y","Y","Y","Y","","","",20.4,"<25",170.2,59,13,18529,26.9,">=12",19348,"2012-12-29","2013-06-28",12,19537,"COMPLETED","COMPLETED","",18],[125,"CDISCPILOT01","01-708-1347","1347","708","708","Xanomeline High Dose","Xanomeline High Dose",81,"Xanomeline High Dose",81,19468,19527,60,74.3,4455,61,"<65",1,"YEARS","WHITE",1,"F","NOT HISPANIC OR LATINO","Y","Y","Y","Y","N","N","Y","Y","",29.2,"25-<30",160,74.8,12,18040,46.7,">=12",19459,"2013-04-20","2013-06-18",9,19527,"ADVERSE EVENT","DISCONTINUED","Adverse Event",22],[126,"CDISCPILOT01","01-708-1348","1348","708","708","Xanomeline Low Dose","Xanomeline Low Dose",54,"Xanomeline Low Dose",54,19575,19767,193,54,10422,79,"65-80",2,"YEARS","WHITE",1,"F","NOT HISPANIC OR LATINO","Y","Y","Y","Y","Y","Y","","","",23.6,"<25",160,60.3,12,18472,36,">=12",19567,"2013-08-05","2014-02-13",12,19767,"COMPLETED","COMPLETED","",13],[127,"CDISCPILOT01","01-708-1353","1353","708","708","Xanomeline Low Dose","Xanomeline Low Dose",54,"Xanomeline Low Dose",54,19543,19598,56,54,3024,87,">80",3,"YEARS","BLACK OR AFRICAN AMERICAN",2,"F","NOT HISPANIC OR LATINO","Y","Y","Y","Y","N","N","Y","Y","",20.3,"<25",157.5,50.4,16,18480,34.4,">=12",19526,"2013-07-04","2013-09-10",8,19611,"ADVERSE EVENT","DISCONTINUED","Adverse Event",16],[128,"CDISCPILOT01","01-708-1372","1372","708","708","Xanomeline High Dose","Xanomeline High Dose",81,"Xanomeline High Dose",81,19460,19467,8,54,432,84,">80",3,"YEARS","WHITE",1,"M","NOT HISPANIC OR LATINO","Y","Y","N","N","N","N","Y","","",30.7,">=30",170.2,88.9,8,17426,66.6,">=12",19451,"2013-04-12","2013-05-10",4,19488,"PROTOCOL VIOLATION","DISCONTINUED","I/E Not Met",17],[129,"CDISCPILOT01","01-708-1378","1378","708","708","Placebo","Placebo",0,"Placebo",0,19604,19751,148,0,0,67,"65-80",2,"YEARS","BLACK OR AFRICAN AMERICAN",2,"M","NOT HISPANIC OR LATINO","Y","Y","Y","Y","Y","N","Y","","",24.3,"<25",170.2,70.3,13,17972,53.3,">=12",19594,"2013-09-03","2014-01-28",11,19751,"STUDY TERMINATED BY SPONSOR","DISCONTINUED","Sponsor Decision",20],[130,"CDISCPILOT01","01-708-1406","1406","708","708","Xanomeline High Dose","Xanomeline High Dose",81,"Xanomeline High Dose",81,19718,19906,189,76.6,14472,71,"65-80",2,"YEARS","WHITE",1,"F","NOT HISPANIC OR LATINO","Y","Y","Y","Y","Y","Y","","","",22.1,"<25",157.5,54.9,13,18437,41.5,">=12",19698,"2013-12-26","2014-07-02",12,19906,"COMPLETED","COMPLETED","",15],[131,"CDISCPILOT01","01-708-1428","1428","708","708","Xanomeline Low Dose","Xanomeline Low Dose",54,"Xanomeline Low Dose",54,19671,19706,36,54,1944,84,">80",3,"YEARS","WHITE",1,"F","NOT HISPANIC OR LATINO","Y","Y","Y","Y","N","N","Y","Y","",23.8,"<25",157.5,59,8,18562,36.2,">=12",19664,"2013-11-09","2014-01-31",8,19754,"ADVERSE EVENT","DISCONTINUED","Adverse Event",19],[132,"CDISCPILOT01","01-709-1001","1001","709","709","Placebo","Placebo",0,"Placebo",0,19639,19821,183,0,0,76,"65-80",2,"YEARS","WHITE",1,"F","NOT HISPANIC OR LATINO","Y","Y","Y","Y","Y","Y","","","",25.2,"25-<30",170.2,73,12,18657,31.7,">=12",19621,"2013-10-08","2014-04-08",12,19821,"COMPLETED","COMPLETED","",15],[133,"CDISCPILOT01","01-709-1007","1007","709","709","Xanomeline Low Dose","Xanomeline Low Dose",54,"Xanomeline Low Dose",54,19205,19233,29,54,1566,54,"<65",1,"YEARS","WHITE",1,"F","NOT HISPANIC OR LATINO","Y","Y","N","N","N","N","Y","Y","",23.8,"<25",158.8,59.9,21,17225,64.8,">=12",19195,"2012-07-31","2012-09-01",5,19237,"ADVERSE EVENT","DISCONTINUED","Adverse Event",10],[134,"CDISCPILOT01","01-709-1020","1020","709","709","Xanomeline Low Dose","Xanomeline Low Dose",54,"Xanomeline Low Dose",54,19328,19510,183,54,9882,72,"65-80",2,"YEARS","WHITE",1,"F","NOT HISPANIC OR LATINO","Y","Y","Y","Y","Y","Y","","","",25.9,"25-<30",144.8,54.4,12,17954,44.9,">=12",19319,"2012-12-01","2013-06-01",12,19510,"COMPLETED","COMPLETED","",15],[135,"CDISCPILOT01","01-709-1029","1029","709","709","Xanomeline High Dose","Xanomeline High Dose",81,"Xanomeline High Dose",81,19352,19535,184,76.6,14094,82,">80",3,"YEARS","WHITE",1,"M","NOT HISPANIC OR LATINO","Y","Y","Y","Y","Y","Y","","","",23.1,"<25",172.7,69,20,18050,42.3,">=12",19337,"2012-12-25","2013-06-26",12,19535,"COMPLETED","COMPLETED","",16],[136,"CDISCPILOT01","01-709-1081","1081","709","709","Xanomeline Low Dose","Xanomeline Low Dose",54,"Xanomeline Low Dose",54,19741,19840,100,54,5400,86,">80",3,"YEARS","WHITE",1,"F","NOT HISPANIC OR LATINO","Y","Y","Y","Y","Y","N","Y","Y","",23.5,"<25",154.9,56.5,9,18845,29.2,">=12",19732,"2014-01-18","2014-05-10",10,19853,"ADVERSE EVENT","DISCONTINUED","Adverse Event",21],[137,"CDISCPILOT01","01-709-1088","1088","709","709","Placebo","Placebo",0,"Placebo",0,19825,20005,181,0,0,69,"65-80",2,"YEARS","WHITE",1,"M","NOT HISPANIC OR LATINO","Y","Y","Y","Y","Y","Y","","","",24.8,"<25",179.1,79.4,16,19048,25.1,">=12",19812,"2014-04-12","2014-10-09",12,20005,"COMPLETED","COMPLETED","",23],[138,"CDISCPILOT01","01-709-1099","1099","709","709","Xanomeline High Dose","Xanomeline High Dose",81,"Xanomeline High Dose",81,19656,19838,183,76.1,13932,79,"65-80",2,"YEARS","WHITE",1,"F","NOT HISPANIC OR LATINO","Y","Y","Y","Y","Y","Y","","","",19.6,"<25",165.1,53.5,12,18007,53.8,">=12",19645,"2013-10-25","2014-04-25",12,19838,"COMPLETED","COMPLETED","",11],[139,"CDISCPILOT01","01-709-1102","1102","709","709","Xanomeline Low Dose","Xanomeline Low Dose",54,"Xanomeline Low Dose",54,19373,19444,72,54,3888,71,"65-80",2,"YEARS","WHITE",1,"F","NOT HISPANIC OR LATINO","Y","Y","Y","Y","N","N","Y","Y","",32.1,">=30",166.4,88.9,14,18091,41.9,">=12",19365,"2013-01-15","2013-03-31",9,19448,"ADVERSE EVENT","DISCONTINUED","Adverse Event",16],[140,"CDISCPILOT01","01-709-1168","1168","709","709","Xanomeline High Dose","Xanomeline High Dose",81,"Xanomeline High Dose",81,19572,19627,56,73.3,4104,72,"65-80",2,"YEARS","WHITE",1,"F","NOT HISPANIC OR LATINO","Y","Y","Y","Y","N","N","Y","Y","",27.6,"25-<30",149.9,62.1,12,18199,44.9,">=12",19564,"2013-08-02","2013-09-27",8,19628,"ADVERSE EVENT","DISCONTINUED","Adverse Event",20],[141,"CDISCPILOT01","01-709-1217","1217","709","709","Xanomeline Low Dose","Xanomeline Low Dose",54,"Xanomeline Low Dose",54,19421,19520,100,54,5400,77,"65-80",2,"YEARS","WHITE",1,"M","NOT HISPANIC OR LATINO","Y","Y","Y","Y","Y","N","Y","Y","",23.1,"<25",171.5,68,6,17816,52.2,">=12",19405,"2013-03-04","2013-06-25",10,19534,"ADVERSE EVENT","DISCONTINUED","Adverse Event",14],[142,"CDISCPILOT01","01-709-1238","1238","709","709","Xanomeline High Dose","Xanomeline High Dose",81,"Xanomeline High Dose",81,19493,19576,84,76.2,6399,69,"65-80",2,"YEARS","WHITE",1,"M","NOT HISPANIC OR LATINO","Y","Y","Y","Y","N","N","Y","Y","",28.5,"25-<30",170.2,82.6,8,18913,18.7,">=12",19480,"2013-05-15","2013-08-07",9,19577,"ADVERSE EVENT","DISCONTINUED","Adverse Event",24],[143,"CDISCPILOT01","01-709-1259","1259","709","709","Placebo","Placebo",0,"Placebo",0,19384,19522,139,0,0,82,">80",3,"YEARS","WHITE",1,"M","NOT HISPANIC OR LATINO","Y","Y","Y","Y","Y","N","Y","","",21.9,"<25",172.7,65.3,18,17750,53.3,">=12",19371,"2013-01-26","2013-06-13",11,19522,"LACK OF EFFICACY","DISCONTINUED","Lack of Efficacy",20],[144,"CDISCPILOT01","01-709-1285","1285","709","709","Xanomeline Low Dose","Xanomeline Low Dose",54,"Xanomeline Low Dose",54,19441,19501,61,54,3294,87,">80",3,"YEARS","WHITE",1,"M","NOT HISPANIC OR LATINO","Y","Y","Y","Y","N","N","Y","","",23.1,"<25",167.6,64.9,6,18158,42,">=12",19434,"2013-03-24","2013-05-31",9,19509,"STUDY TERMINATED BY SPONSOR","DISCONTINUED","Sponsor Decision",16],[145,"CDISCPILOT01","01-709-1301","1301","709","709","Placebo","Placebo",0,"Placebo",0,19558,19740,183,0,0,62,"<65",1,"YEARS","WHITE",1,"F","NOT HISPANIC OR LATINO","Y","Y","Y","Y","Y","Y","","","",23.6,"<25",146.1,50.4,10,17932,53.3,">=12",19553,"2013-07-19","2014-01-17",12,19740,"COMPLETED","COMPLETED","",10],[146,"CDISCPILOT01","01-709-1306","1306","709","709","Placebo","Placebo",0,"Placebo",0,19757,19890,134,0,0,60,"<65",1,"YEARS","WHITE",1,"F","NOT HISPANIC OR LATINO","Y","Y","Y","Y","Y","N","Y","Y","",18.5,"<25",154.9,44.5,12,17930,59.6,">=12",19742,"2014-02-03","2014-06-25",11,19899,"ADVERSE EVENT","DISCONTINUED","Adverse Event",21],[147,"CDISCPILOT01","01-709-1309","1309","709","709","Xanomeline High Dose","Xanomeline High Dose",81,"Xanomeline High Dose",81,19528,19711,184,77,14175,65,"65-80",2,"YEARS","WHITE",1,"M","NOT HISPANIC OR LATINO","Y","Y","Y","Y","Y","Y","","","",24.8,"<25",177.8,78.5,16,18252,41.6,">=12",19518,"2013-06-19","2013-12-19",12,19711,"COMPLETED","COMPLETED","",17],[148,"CDISCPILOT01","01-709-1312","1312","709","709","Placebo","Placebo",0,"Placebo",0,19833,20015,183,0,0,68,"65-80",2,"YEARS","WHITE",1,"F","NOT HISPANIC OR LATINO","Y","Y","Y","Y","Y","Y","","","",20.9,"<25",160,53.5,13,18473,44.5,">=12",19826,"2014-04-20","2014-10-19",12,20015,"COMPLETED","COMPLETED","",14],[149,"CDISCPILOT01","01-709-1326","1326","709","709","Xanomeline Low Dose","Xanomeline Low Dose",54,"Xanomeline Low Dose",54,19453,19633,181,54,9774,75,"65-80",2,"YEARS","WHITE",1,"F","NOT HISPANIC OR LATINO","Y","Y","Y","Y","Y","Y","","","",28.7,"25-<30",161.3,74.8,16,18524,30.1,">=12",19438,"2013-04-05","2013-10-02",12,19633,"COMPLETED","COMPLETED","",11],[150,"CDISCPILOT01","01-709-1329","1329","709","709","Xanomeline High Dose","Xanomeline High Dose",81,"Xanomeline High Dose",81,19585,19595,11,54,594,70,"65-80",2,"YEARS","WHITE",1,"M","NOT HISPANIC OR LATINO","Y","Y","Y","N","N","N","Y","","",26.5,"25-<30",170.2,76.7,16,17964,52.8,">=12",19571,"2013-08-15","2013-08-29",4,19599,"WITHDRAWAL BY SUBJECT","DISCONTINUED","Withdrew Consent",10],[151,"CDISCPILOT01","01-709-1339","1339","709","709","Placebo","Placebo",0,"Placebo",0,19350,19533,184,0,0,81,">80",3,"YEARS","WHITE",1,"M","NOT HISPANIC OR LATINO","Y","Y","Y","Y","Y","Y","","","",25.4,"25-<30",175.3,78,16,18324,33.5,">=12",19342,"2012-12-23","2013-06-24",12,19533,"COMPLETED","COMPLETED","",23],[152,"CDISCPILOT01","01-709-1424","1424","709","709","Xanomeline High Dose","Xanomeline High Dose",81,"Xanomeline High Dose",81,19420,19424,5,54,270,77,"65-80",2,"YEARS","WHITE",1,"M","NOT HISPANIC OR LATINO","Y","Y","Y","N","N","N","Y","Y","",22.6,"<25",174,68.5,16,17421,65.2,">=12",19404,"2013-03-03","2013-03-08",4,19425,"ADVERSE EVENT","DISCONTINUED","Adverse Event",18],[153,"CDISCPILOT01","01-710-1002","1002","710","710","Xanomeline Low Dose","Xanomeline Low Dose",54,"Xanomeline Low Dose",54,19737,19741,5,54,270,88,">80",3,"YEARS","WHITE",1,"M","NOT HISPANIC OR LATINO","Y","Y","Y","N","N","N","Y","Y","",25.8,"25-<30",165.1,70.3,12,17539,71.8,">=12",19722,"2014-01-14","2014-01-18",4,19741,"ADVERSE EVENT","DISCONTINUED","Adverse Event",17],[154,"CDISCPILOT01","01-710-1006","1006","710","710","Xanomeline High Dose","Xanomeline High Dose",81,"Xanomeline High Dose",81,19399,19579,181,77.1,13959,77,"65-80",2,"YEARS","WHITE",1,"M","NOT HISPANIC OR LATINO","Y","Y","Y","Y","Y","Y","","","",25.1,"25-<30",170.2,72.6,12,19033,11.6,"<12",19385,"2013-02-10","2013-08-10",12,19580,"COMPLETED","COMPLETED","",12],[155,"CDISCPILOT01","01-710-1021","1021","710","710","Xanomeline High Dose","Xanomeline High Dose",81,"Xanomeline High Dose",81,19628,19660,33,68.7,2268,79,"65-80",2,"YEARS","BLACK OR AFRICAN AMERICAN",2,"M","NOT HISPANIC OR LATINO","Y","Y","N","N","N","N","Y","Y","",21.3,"<25",162.6,56.3,8,19183,14.4,">=12",19620,"2013-09-27","2013-11-12",7,19674,"ADVERSE EVENT","DISCONTINUED","Adverse Event",11],[156,"CDISCPILOT01","01-710-1027","1027","710","710","Placebo","Placebo",0,"Placebo",0,19782,19964,183,0,0,83,">80",3,"YEARS","WHITE",1,"M","NOT HISPANIC OR LATINO","Y","Y","Y","Y","Y","Y","","","",24.4,"<25",170.2,70.8,12,19027,24,">=12",19757,"2014-02-28","2014-08-29",12,19964,"COMPLETED","COMPLETED","",20],[157,"CDISCPILOT01","01-710-1045","1045","710","710","Xanomeline Low Dose","Xanomeline Low Dose",54,"Xanomeline Low Dose",54,19512,19583,72,54,3888,83,">80",3,"YEARS","WHITE",1,"F","NOT HISPANIC OR LATINO","Y","Y","Y","Y","N","N","Y","Y","",22,"<25",162.6,58.1,12,18394,36.3,">=12",19498,"2013-06-03","2013-08-17",9,19587,"ADVERSE EVENT","DISCONTINUED","Adverse Event",14],[158,"CDISCPILOT01","01-710-1053","1053","710","710","Xanomeline Low Dose","Xanomeline Low Dose",54,"Xanomeline Low Dose",54,19353,19399,47,54,2538,84,">80",3,"YEARS","WHITE",1,"F","NOT HISPANIC OR LATINO","Y","Y","Y","Y","N","N","Y","Y","",20.8,"<25",157.5,51.7,12,18935,13.4,">=12",19342,"2012-12-26","2013-02-15",8,19404,"ADVERSE EVENT","DISCONTINUED","Adverse Event",20],[159,"CDISCPILOT01","01-710-1060","1060","710","710","Placebo","Placebo",0,"Placebo",0,19359,19544,186,0,0,82,">80",3,"YEARS","WHITE",1,"M","NOT HISPANIC OR LATINO","Y","Y","Y","Y","Y","Y","","","",21,"<25",182.9,70.3,16,18519,27.4,">=12",19351,"2013-01-01","2013-07-05",12,19544,"COMPLETED","COMPLETED","",23],[160,"CDISCPILOT01","01-710-1070","1070","710","710","Xanomeline High Dose","Xanomeline High Dose",81,"Xanomeline High Dose",81,19244,19380,137,78,10692,85,">80",3,"YEARS","WHITE",1,"F","NOT HISPANIC OR LATINO","Y","Y","Y","Y","Y","N","Y","Y","",21.8,"<25",149.9,49,10,18513,23.7,">=12",19233,"2012-09-08","2013-02-23",11,19412,"ADVERSE EVENT","DISCONTINUED","Adverse Event",10],[161,"CDISCPILOT01","01-710-1077","1077","710","710","Placebo","Placebo",0,"Placebo",0,19679,19861,183,0,0,76,"65-80",2,"YEARS","WHITE",1,"F","NOT HISPANIC OR LATINO","Y","Y","Y","Y","Y","Y","","","",18.5,"<25",162.6,49,12,18789,28.8,">=12",19665,"2013-11-17","2014-05-18",12,19861,"COMPLETED","COMPLETED","",14],[162,"CDISCPILOT01","01-710-1078","1078","710","710","Placebo","Placebo",0,"Placebo",0,19618,19805,188,0,0,81,">80",3,"YEARS","WHITE",1,"F","NOT HISPANIC OR LATINO","Y","Y","Y","Y","Y","Y","","","",18,"<25",152.4,41.7,12,18864,24.4,">=12",19607,"2013-09-17","2014-03-23",12,19805,"COMPLETED","COMPLETED","",21],[163,"CDISCPILOT01","01-710-1083","1083","710","710","Placebo","Placebo",0,"Placebo",0,19561,19571,11,0,0,89,">80",3,"YEARS","WHITE",1,"F","NOT HISPANIC OR LATINO","Y","Y","N","N","N","N","Y","","Y",19,"<25",157.5,47.2,14,18827,23.7,">=12",19548,"2013-07-22","2013-08-03",4,19573,"DEATH","DISCONTINUED","Death",14],[164,"CDISCPILOT01","01-710-1137","1137","710","710","Xanomeline High Dose","Xanomeline High Dose",81,"Xanomeline High Dose",81,19642,19675,34,69.1,2349,79,"65-80",2,"YEARS","BLACK OR AFRICAN AMERICAN",2,"F","NOT HISPANIC OR LATINO","Y","Y","N","N","N","N","Y","Y","",24,"<25",165.1,65.3,16,18182,47.7,">=12",19634,"2013-10-11","2013-11-13",7,19675,"ADVERSE EVENT","DISCONTINUED","Adverse Event",18],[165,"CDISCPILOT01","01-710-1142","1142","710","710","Xanomeline High Dose","Xanomeline High Dose",81,"Xanomeline High Dose",81,19268,19286,19,59.7,1134,76,"65-80",2,"YEARS","WHITE",1,"F","NOT HISPANIC OR LATINO","Y","Y","Y","N","N","N","Y","Y","",24.8,"<25",152.4,57.6,12,18531,23.6,">=12",19248,"2012-10-02","2012-10-23",5,19289,"ADVERSE EVENT","DISCONTINUED","Adverse Event",23],[166,"CDISCPILOT01","01-710-1154","1154","710","710","Xanomeline Low Dose","Xanomeline Low Dose",54,"Xanomeline Low Dose",54,19811,19840,30,54,1620,84,">80",3,"YEARS","WHITE",1,"M","HISPANIC OR LATINO","Y","Y","Y","N","N","N","Y","Y","",32.3,">=30",160,82.6,3,17587,72.4,">=12",19790,"2014-03-29","2014-05-09",7,19852,"ADVERSE EVENT","DISCONTINUED","Adverse Event",13],[167,"CDISCPILOT01","01-710-1166","1166","710","710","Xanomeline Low Dose","Xanomeline Low Dose",54,"Xanomeline Low Dose",54,19327,19436,110,54,5940,81,">80",3,"YEARS","WHITE",1,"F","NOT HISPANIC OR LATINO","Y","Y","Y","Y","Y","N","Y","Y","",22.1,"<25",157.5,54.9,12,17480,60.1,">=12",19307,"2012-11-30","2013-03-30",10,19447,"ADVERSE EVENT","DISCONTINUED","Adverse Event",18],[168,"CDISCPILOT01","01-710-1183","1183","710","710","Placebo","Placebo",0,"Placebo",0,19678,19860,183,0,0,80,"65-80",2,"YEARS","WHITE",1,"F","NOT HISPANIC OR LATINO","Y","Y","Y","Y","Y","Y","","","",21.2,"<25",149.9,47.6,8,19291,12,">=12",19655,"2013-11-16","2014-05-17",12,19860,"COMPLETED","COMPLETED","",16],[169,"CDISCPILOT01","01-710-1187","1187","710","710","Xanomeline High Dose","Xanomeline High Dose",81,"Xanomeline High Dose",81,19307,19490,184,76.7,14121,78,"65-80",2,"YEARS","WHITE",1,"F","NOT HISPANIC OR LATINO","Y","Y","Y","Y","Y","Y","","","",20.8,"<25",154.9,49.9,8,18557,24.2,">=12",19292,"2012-11-10","2013-05-12",12,19490,"COMPLETED","COMPLETED","",11],[170,"CDISCPILOT01","01-710-1235","1235","710","710","Xanomeline Low Dose","Xanomeline Low Dose",54,"Xanomeline Low Dose",54,19262,19444,183,54,9882,56,"<65",1,"YEARS","WHITE",1,"F","HISPANIC OR LATINO","Y","Y","Y","Y","Y","Y","","","",33,">=30",170.2,95.7,16,18234,33.4,">=12",19249,"2012-09-26","2013-03-27",12,19444,"COMPLETED","COMPLETED","",20],[171,"CDISCPILOT01","01-710-1249","1249","710","710","Xanomeline High Dose","Xanomeline High Dose",81,"Xanomeline High Dose",81,19720,19902,183,76.7,14040,79,"65-80",2,"YEARS","WHITE",1,"M","NOT HISPANIC OR LATINO","Y","Y","Y","Y","Y","Y","","","",25.4,"25-<30",177.8,80.3,12,17893,59.8,">=12",19711,"2013-12-28","2014-06-28",12,19902,"COMPLETED","COMPLETED","",20],[172,"CDISCPILOT01","01-710-1264","1264","710","710","Placebo","Placebo",0,"Placebo",0,19522,19642,121,0,0,78,"65-80",2,"YEARS","WHITE",1,"M","NOT HISPANIC OR LATINO","Y","Y","Y","Y","Y","N","Y","Y","",29.1,"25-<30",167.6,81.7,12,18419,35.9,">=12",19511,"2013-06-13","2013-10-12",11,19643,"ADVERSE EVENT","DISCONTINUED","Adverse Event",14],[173,"CDISCPILOT01","01-710-1270","1270","710","710","Xanomeline Low Dose","Xanomeline Low Dose",54,"Xanomeline Low Dose",54,19766,19783,18,54,972,83,">80",3,"YEARS","WHITE",1,"F","NOT HISPANIC OR LATINO","Y","Y","Y","N","N","N","Y","Y","",25.6,"25-<30",149.9,57.6,12,19163,19.5,">=12",19755,"2014-02-12","2014-03-01",4,19783,"ADVERSE EVENT","DISCONTINUED","Adverse Event",11],[174,"CDISCPILOT01","01-710-1271","1271","710","710","Placebo","Placebo",0,"Placebo",0,19263,19318,56,0,0,86,">80",3,"YEARS","WHITE",1,"F","NOT HISPANIC OR LATINO","Y","Y","N","Y","N","N","Y","Y","",21.2,"<25",149.9,47.6,16,18875,12,">=12",19240,"2012-09-27","2012-12-02",8,19329,"ADVERSE EVENT","DISCONTINUED","Adverse Event",18],[175,"CDISCPILOT01","01-710-1278","1278","710","710","Xanomeline High Dose","Xanomeline High Dose",81,"Xanomeline High Dose",81,19351,19415,65,74.8,4860,81,">80",3,"YEARS","WHITE",1,"M","NOT HISPANIC OR LATINO","Y","Y","Y","Y","N","N","Y","Y","",22.7,"<25",177.8,71.7,20,18969,12.2,">=12",19340,"2012-12-24","2013-03-03",9,19420,"ADVERSE EVENT","DISCONTINUED","Adverse Event",14],[176,"CDISCPILOT01","01-710-1300","1300","710","710","Xanomeline Low Dose","Xanomeline Low Dose",54,"Xanomeline Low Dose",54,19342,19404,63,54,3402,78,"65-80",2,"YEARS","WHITE",1,"F","NOT HISPANIC OR LATINO","Y","Y","Y","Y","N","N","Y","Y","",20.1,"<25",152.4,46.7,12,18947,12.6,">=12",19331,"2012-12-15","2013-02-19",9,19408,"ADVERSE EVENT","DISCONTINUED","Adverse Event",13],[177,"CDISCPILOT01","01-710-1314","1314","710","710","Placebo","Placebo",0,"Placebo",0,19472,19501,30,0,0,78,"65-80",2,"YEARS","WHITE",1,"F","NOT HISPANIC OR LATINO","Y","Y","N","N","N","N","Y","","",22.6,"<25",137.2,42.6,12,18731,24.3,">=12",19469,"2013-04-24","2013-05-25",6,19503,"WITHDRAWAL BY SUBJECT","DISCONTINUED","Withdrew Consent",12],[178,"CDISCPILOT01","01-710-1315","1315","710","710","Placebo","Placebo",0,"Placebo",0,19416,19545,130,0,0,83,">80",3,"YEARS","WHITE",1,"F","NOT HISPANIC OR LATINO","Y","Y","Y","Y","Y","N","Y","Y","",24.2,"<25",152.4,56.3,12,18859,17.8,">=12",19401,"2013-02-27","2013-07-16",11,19555,"ADVERSE EVENT","DISCONTINUED","Adverse Event",12],[179,"CDISCPILOT01","01-710-1354","1354","710","710","Xanomeline High Dose","Xanomeline High Dose",81,"Xanomeline High Dose",81,19308,19479,172,77.1,13257,73,"65-80",2,"YEARS","WHITE",1,"M","NOT HISPANIC OR LATINO","Y","Y","Y","Y","Y","Y","","","",26.7,"25-<30",182.9,89.4,16,18937,11.8,"<12",19295,"2012-11-11","2013-05-01",12,19479,"COMPLETED","COMPLETED","",23],[180,"CDISCPILOT01","01-710-1358","1358","710","710","Xanomeline Low Dose","Xanomeline Low Dose",54,"Xanomeline Low Dose",54,19253,19398,146,54,7884,82,">80",3,"YEARS","WHITE",1,"M","NOT HISPANIC OR LATINO","Y","Y","Y","Y","Y","Y","Y","","",31.1,">=30",162.6,82.1,6,18138,36.2,">=12",19238,"2012-09-17","2013-03-12",12,19429,"WITHDRAWAL BY SUBJECT","DISCONTINUED","Withdrew Consent",13],[181,"CDISCPILOT01","01-710-1368","1368","710","710","Placebo","Placebo",0,"Placebo",0,19654,19837,184,0,0,88,">80",3,"YEARS","WHITE",1,"F","NOT HISPANIC OR LATINO","Y","Y","Y","Y","Y","Y","","","",15.7,"<25",147.3,34,12,18912,24.3,">=12",19652,"2013-10-23","2014-04-24",12,19837,"COMPLETED","COMPLETED","",13],[182,"CDISCPILOT01","01-710-1385","1385","710","710","Xanomeline Low Dose","Xanomeline Low Dose",54,"Xanomeline Low Dose",54,19295,19407,113,54,6102,77,"65-80",2,"YEARS","WHITE",1,"M","NOT HISPANIC OR LATINO","Y","Y","Y","Y","Y","N","Y","Y","",25.2,"25-<30",182.9,84.4,18,18928,11.8,"<12",19287,"2012-10-29","2013-02-18",10,19407,"ADVERSE EVENT","DISCONTINUED","Adverse Event",14],[183,"CDISCPILOT01","01-710-1408","1408","710","710","Xanomeline High Dose","Xanomeline High Dose",81,"Xanomeline High Dose",81,19363,19551,189,76.1,14391,80,"65-80",2,"YEARS","WHITE",1,"M","NOT HISPANIC OR LATINO","Y","Y","Y","Y","Y","Y","","","",34.2,">=30",177.8,108,12,17514,60.5,">=12",19353,"2013-01-05","2013-07-12",12,19551,"COMPLETED","COMPLETED","",23],[184,"CDISCPILOT01","01-711-1012","1012","711","900","Xanomeline High Dose","Xanomeline High Dose",81,"Xanomeline High Dose",81,19451,19477,27,66,1782,67,"65-80",2,"YEARS","WHITE",1,"F","NOT HISPANIC OR LATINO","Y","Y","Y","N","N","N","Y","Y","",28,"25-<30",170.2,81,12,18833,19.9,">=12",19437,"2013-04-03","2013-05-02",5,19480,"ADVERSE EVENT","DISCONTINUED","Adverse Event",18],[185,"CDISCPILOT01","01-711-1036","1036","711","900","Placebo","Placebo",0,"Placebo",0,19203,19399,197,0,0,70,"65-80",2,"YEARS","BLACK OR AFRICAN AMERICAN",2,"M","NOT HISPANIC OR LATINO","Y","Y","Y","Y","Y","Y","","","",23.4,"<25",172,69.2,9,17961,40.5,">=12",19194,"2012-07-29","2013-02-10",12,19399,"COMPLETED","COMPLETED","",23],[186,"CDISCPILOT01","01-711-1143","1143","711","900","Xanomeline Low Dose","Xanomeline Low Dose",54,"Xanomeline Low Dose",54,19451,19508,58,54,3132,76,"65-80",2,"YEARS","WHITE",1,"F","NOT HISPANIC OR LATINO","Y","Y","Y","Y","N","N","Y","Y","",24.3,"<25",163.1,64.6,12,18746,23.1,">=12",19447,"2013-04-03","2013-06-01",9,19510,"ADVERSE EVENT","DISCONTINUED","Adverse Event",23],[187,"CDISCPILOT01","01-711-1433","1433","711","900","Xanomeline High Dose","Xanomeline High Dose",81,"Xanomeline High Dose",81,19385,19394,10,54,540,84,">80",3,"YEARS","WHITE",1,"F","NOT HISPANIC OR LATINO","Y","Y","N","N","N","N","Y","Y","",20.9,"<25",157.5,51.9,12,19025,11.7,"<12",19381,"2013-01-27","2013-02-06",4,19395,"ADVERSE EVENT","DISCONTINUED","Adverse Event",18],[188,"CDISCPILOT01","01-713-1043","1043","713","713","Xanomeline Low Dose","Xanomeline Low Dose",54,"Xanomeline Low Dose",54,19616,19806,191,54,10314,78,"65-80",2,"YEARS","WHITE",1,"F","NOT HISPANIC OR LATINO","Y","Y","Y","Y","Y","Y","","","",18.8,"<25",165.1,51.3,8,18970,20.3,">=12",19587,"2013-09-15","2014-03-24",12,19806,"COMPLETED","COMPLETED","",16],[189,"CDISCPILOT01","01-713-1073","1073","713","713","Xanomeline Low Dose","Xanomeline Low Dose",54,"Xanomeline Low Dose",54,19812,20001,190,54,10260,74,"65-80",2,"YEARS","BLACK OR AFRICAN AMERICAN",2,"F","NOT HISPANIC OR LATINO","Y","Y","Y","Y","Y","Y","","","",20.3,"<25",167.6,56.9,6,19408,12.8,">=12",19797,"2014-03-30","2014-10-05",12,20001,"COMPLETED","COMPLETED","",11],[190,"CDISCPILOT01","01-713-1106","1106","713","713","Xanomeline High Dose","Xanomeline High Dose",81,"Xanomeline High Dose",81,19297,19484,188,76.7,14418,74,"65-80",2,"YEARS","WHITE",1,"M","NOT HISPANIC OR LATINO","Y","Y","Y","Y","Y","Y","","","",19.6,"<25",164.8,53.1,16,18278,32.6,">=12",19269,"2012-10-31","2013-05-06",12,19484,"COMPLETED","COMPLETED","",23],[191,"CDISCPILOT01","01-713-1141","1141","713","713","Xanomeline High Dose","Xanomeline High Dose",81,"Xanomeline High Dose",81,19509,19540,32,68.3,2187,79,"65-80",2,"YEARS","WHITE",1,"M","NOT HISPANIC OR LATINO","Y","Y","N","N","N","N","Y","Y","",23.5,"<25",170,68,13,17129,78,">=12",19501,"2013-05-31","2013-08-06",7,19576,"ADVERSE EVENT","DISCONTINUED","Adverse Event",18],[192,"CDISCPILOT01","01-713-1179","1179","713","713","Placebo","Placebo",0,"Placebo",0,19579,19759,181,0,0,64,"<65",1,"YEARS","WHITE",1,"F","NOT HISPANIC OR LATINO","Y","Y","Y","Y","Y","Y","","","",20.3,"<25",165.1,55.3,12,18751,26.3,">=12",19550,"2013-08-09","2014-02-05",12,19759,"COMPLETED","COMPLETED","",21],[193,"CDISCPILOT01","01-713-1209","1209","713","713","Xanomeline High Dose","Xanomeline High Dose",81,"Xanomeline High Dose",81,19505,19684,180,77,13851,77,"65-80",2,"YEARS","WHITE",1,"F","NOT HISPANIC OR LATINO","Y","Y","Y","Y","Y","Y","","","",19.2,"<25",165.1,52.2,12,18457,34.1,">=12",19494,"2013-05-27","2013-11-22",12,19684,"COMPLETED","COMPLETED","",23],[194,"CDISCPILOT01","01-713-1256","1256","713","713","Placebo","Placebo",0,"Placebo",0,19255,19442,188,0,0,71,"65-80",2,"YEARS","WHITE",1,"M","NOT HISPANIC OR LATINO","Y","Y","Y","Y","Y","Y","","","",23.7,"<25",180.3,77.1,16,17936,43.1,">=12",19246,"2012-09-19","2013-03-25",12,19442,"COMPLETED","COMPLETED","",13],[195,"CDISCPILOT01","01-713-1269","1269","713","713","Placebo","Placebo",0,"Placebo",0,19750,19932,183,0,0,73,"65-80",2,"YEARS","WHITE",1,"M","NOT HISPANIC OR LATINO","Y","Y","Y","Y","Y","Y","","","",21.9,"<25",185.4,75.3,16,19073,21.8,">=12",19737,"2014-01-27","2014-07-28",12,19932,"COMPLETED","COMPLETED","",23],[196,"CDISCPILOT01","01-713-1448","1448","713","713","Xanomeline Low Dose","Xanomeline Low Dose",54,"Xanomeline Low Dose",54,19742,19859,118,54,6372,71,"65-80",2,"YEARS","WHITE",1,"F","NOT HISPANIC OR LATINO","Y","Y","Y","Y","Y","N","Y","Y","",25.5,"25-<30",175.3,78.5,13,17631,68.9,">=12",19728,"2014-01-19","2014-05-17",10,19860,"ADVERSE EVENT","DISCONTINUED","Adverse Event",23],[197,"CDISCPILOT01","01-714-1035","1035","714","900","Placebo","Placebo",0,"Placebo",0,19830,20012,183,0,0,88,">80",3,"YEARS","WHITE",1,"F","NOT HISPANIC OR LATINO","Y","Y","Y","Y","Y","Y","","","",24.6,"<25",148.6,54.4,12,18719,36.1,">=12",19816,"2014-04-17","2014-10-16",12,20012,"COMPLETED","COMPLETED","",17],[198,"CDISCPILOT01","01-714-1068","1068","714","900","Xanomeline Low Dose","Xanomeline Low Dose",54,"Xanomeline Low Dose",54,19578,19639,62,54,3348,79,"65-80",2,"YEARS","WHITE",1,"F","NOT HISPANIC OR LATINO","Y","Y","Y","Y","N","N","Y","Y","",23,"<25",153.7,54.4,9,19198,12.3,">=12",19570,"2013-08-08","2013-10-16",9,19647,"ADVERSE EVENT","DISCONTINUED","Adverse Event",18],[199,"CDISCPILOT01","01-714-1195","1195","714","900","Xanomeline Low Dose","Xanomeline Low Dose",54,"Xanomeline Low Dose",54,19474,19654,181,54,9774,75,"65-80",2,"YEARS","WHITE",1,"M","NOT HISPANIC OR LATINO","Y","Y","Y","Y","Y","Y","","","",28.7,"25-<30",172.7,85.7,16,18747,23.6,">=12",19464,"2013-04-26","2013-10-23",12,19654,"COMPLETED","COMPLETED","",19],[200,"CDISCPILOT01","01-714-1288","1288","714","900","Xanomeline High Dose","Xanomeline High Dose",81,"Xanomeline High Dose",81,19696,19891,196,76.2,14931,77,"65-80",2,"YEARS","BLACK OR AFRICAN AMERICAN",2,"M","NOT HISPANIC OR LATINO","Y","Y","Y","Y","Y","Y","","","",18.7,"<25",162.6,49.4,6,18212,48.5,">=12",19686,"2013-12-04","2014-06-17",12,19891,"COMPLETED","COMPLETED","",19],[201,"CDISCPILOT01","01-714-1375","1375","714","900","Placebo","Placebo",0,"Placebo",0,19415,19608,194,0,0,78,"65-80",2,"YEARS","WHITE",1,"F","NOT HISPANIC OR LATINO","Y","Y","Y","Y","Y","Y","","","",25.6,"25-<30",149.9,57.6,10,17572,60.5,">=12",19412,"2013-02-26","2013-09-07",12,19608,"COMPLETED","COMPLETED","",17],[202,"CDISCPILOT01","01-714-1425","1425","714","900","Xanomeline High Dose","Xanomeline High Dose",81,"Xanomeline High Dose",81,19585,19589,5,54,270,81,">80",3,"YEARS","WHITE",1,"M","NOT HISPANIC OR LATINO","Y","Y","Y","N","N","N","Y","","",29,"25-<30",177.8,91.6,16,18473,36.4,">=12",19581,"2013-08-15","2013-08-22",4,19592,"STUDY TERMINATED BY SPONSOR","DISCONTINUED","Sponsor Decision",22],[203,"CDISCPILOT01","01-715-1085","1085","715","900","Xanomeline Low Dose","Xanomeline Low Dose",54,"Xanomeline Low Dose",54,19405,19588,184,54,9936,77,"65-80",2,"YEARS","WHITE",1,"F","NOT HISPANIC OR LATINO","Y","Y","Y","Y","Y","Y","","","",21.8,"<25",162.6,57.6,14,18476,30.1,">=12",19392,"2013-02-16","2013-08-18",12,19588,"COMPLETED","COMPLETED","",23],[204,"CDISCPILOT01","01-715-1107","1107","715","900","Xanomeline Low Dose","Xanomeline Low Dose",54,"Xanomeline Low Dose",54,19415,19485,71,54,3834,65,"65-80",2,"YEARS","WHITE",1,"M","NOT HISPANIC OR LATINO","Y","Y","Y","Y","N","N","Y","Y","",23.3,"<25",172.7,69.4,12,18892,16.8,">=12",19401,"2013-02-26","2013-05-13",9,19491,"ADVERSE EVENT","DISCONTINUED","Adverse Event",23],[205,"CDISCPILOT01","01-715-1155","1155","715","900","Placebo","Placebo",0,"Placebo",0,19705,19748,44,0,0,59,"<65",1,"YEARS","WHITE",1,"F","NOT HISPANIC OR LATINO","Y","Y","N","N","N","N","Y","","",23.3,"<25",165.1,63.5,12,18605,35.7,">=12",19691,"2013-12-13","2014-04-26",7,19839,"WITHDRAWAL BY SUBJECT","DISCONTINUED","Withdrew Consent",10],[206,"CDISCPILOT01","01-715-1207","1207","715","900","Placebo","Placebo",0,"Placebo",0,19315,19505,191,0,0,78,"65-80",2,"YEARS","WHITE",1,"F","NOT HISPANIC OR LATINO","Y","Y","Y","Y","Y","Y","","","",21.3,"<25",152.4,49.4,7,18358,31.3,">=12",19309,"2012-11-18","2013-06-01",12,19510,"COMPLETED","COMPLETED","",20],[207,"CDISCPILOT01","01-715-1319","1319","715","900","Xanomeline High Dose","Xanomeline High Dose",81,"Xanomeline High Dose",81,19406,19422,17,57.2,972,65,"65-80",2,"YEARS","WHITE",1,"M","NOT HISPANIC OR LATINO","Y","Y","Y","N","N","N","Y","","",25.4,"25-<30",172.7,75.8,13,17390,65.8,">=12",19392,"2013-02-17","2013-03-18",5,19435,"WITHDRAWAL BY SUBJECT","DISCONTINUED","Withdrew Consent",12],[208,"CDISCPILOT01","01-715-1321","1321","715","900","Xanomeline High Dose","Xanomeline High Dose",81,"Xanomeline High Dose",81,19765,19834,70,74.8,5238,75,"65-80",2,"YEARS","WHITE",1,"F","NOT HISPANIC OR LATINO","Y","Y","Y","Y","N","N","Y","Y","",22.7,"<25",162.6,59.9,12,18596,38.3,">=12",19760,"2014-02-11","2014-04-22",9,19835,"ADVERSE EVENT","DISCONTINUED","Adverse Event",23],[209,"CDISCPILOT01","01-715-1397","1397","715","900","Placebo","Placebo",0,"Placebo",0,19451,19633,183,0,0,76,"65-80",2,"YEARS","WHITE",1,"F","NOT HISPANIC OR LATINO","Y","Y","Y","Y","Y","Y","","","",28.9,"25-<30",152.4,67.1,11,19129,10.2,"<12",19437,"2013-04-03","2013-10-03",12,19634,"COMPLETED","COMPLETED","",22],[210,"CDISCPILOT01","01-715-1405","1405","715","900","Xanomeline Low Dose","Xanomeline Low Dose",54,"Xanomeline Low Dose",54,19545,19546,2,54,108,69,"65-80",2,"YEARS","WHITE",1,"M","NOT HISPANIC OR LATINO","Y","Y","Y","N","N","N","Y","Y","",21.5,"<25",180.3,69.9,16,16122,112.2,">=12",19536,"2013-07-06","2013-07-13",4,19552,"ADVERSE EVENT","DISCONTINUED","Adverse Event",10],[211,"CDISCPILOT01","01-716-1024","1024","716","716","Placebo","Placebo",0,"Placebo",0,19183,19378,196,0,0,87,">80",3,"YEARS","WHITE",1,"F","NOT HISPANIC OR LATINO","Y","Y","Y","Y","Y","Y","","","",22.7,"<25",154.9,54.4,12,18962,7.2,"<12",19180,"2012-07-09","2013-01-20",12,19378,"COMPLETED","COMPLETED","",22],[212,"CDISCPILOT01","01-716-1026","1026","716","716","Placebo","Placebo",0,"Placebo",0,19815,20012,198,0,0,73,"65-80",2,"YEARS","WHITE",1,"F","NOT HISPANIC OR LATINO","Y","Y","Y","Y","Y","Y","","","",33.3,">=30",154.9,79.8,12,18507,42.7,">=12",19805,"2014-04-02","2014-10-16",12,20012,"COMPLETED","COMPLETED","",11],[213,"CDISCPILOT01","01-716-1030","1030","716","716","Xanomeline High Dose","Xanomeline High Dose",81,"Xanomeline High Dose",81,19720,19725,6,54,324,83,">80",3,"YEARS","WHITE",1,"F","NOT HISPANIC OR LATINO","Y","Y","Y","N","N","N","Y","","",33.2,">=30",150.6,75.3,12,18876,27.7,">=12",19717,"2013-12-28","2014-01-10",4,19733,"WITHDRAWAL BY SUBJECT","DISCONTINUED","Withdrew Consent",16],[214,"CDISCPILOT01","01-716-1044","1044","716","716","Placebo","Placebo",0,"Placebo",0,19475,19665,191,0,0,74,"65-80",2,"YEARS","WHITE",1,"M","NOT HISPANIC OR LATINO","Y","Y","Y","Y","Y","Y","","","",28.9,"25-<30",172.7,86.2,12,18707,25,">=12",19468,"2013-04-27","2013-11-03",12,19665,"COMPLETED","COMPLETED","",14],[215,"CDISCPILOT01","01-716-1063","1063","716","716","Xanomeline Low Dose","Xanomeline Low Dose",54,"Xanomeline Low Dose",54,19487,19595,109,54,5886,80,"65-80",2,"YEARS","WHITE",1,"M","NOT HISPANIC OR LATINO","Y","Y","Y","Y","Y","N","Y","Y","",28.4,"25-<30",160,72.6,8,15796,121.2,">=12",19484,"2013-05-09","2013-08-28",10,19598,"ADVERSE EVENT","DISCONTINUED","Adverse Event",17],[216,"CDISCPILOT01","01-716-1071","1071","716","716","Xanomeline High Dose","Xanomeline High Dose",81,"Xanomeline High Dose",81,19517,19571,55,73.6,4050,78,"65-80",2,"YEARS","WHITE",1,"F","NOT HISPANIC OR LATINO","Y","Y","Y","Y","N","N","Y","Y","",32,">=30",154.9,76.7,12,18597,30.1,">=12",19512,"2013-06-08","2013-08-01",8,19571,"ADVERSE EVENT","DISCONTINUED","Adverse Event",20],[217,"CDISCPILOT01","01-716-1094","1094","716","716","Xanomeline Low Dose","Xanomeline Low Dose",54,"Xanomeline Low Dose",54,19346,19382,37,54,1998,82,">80",3,"YEARS","WHITE",1,"M","NOT HISPANIC OR LATINO","Y","Y","Y","N","N","N","Y","Y","",28.3,"25-<30",168.9,80.7,8,17528,59.7,">=12",19343,"2012-12-19","2013-01-26",7,19384,"ADVERSE EVENT","DISCONTINUED","Adverse Event",11],[218,"CDISCPILOT01","01-716-1103","1103","716","716","Xanomeline Low Dose","Xanomeline Low Dose",54,"Xanomeline Low Dose",54,19802,19986,185,54,9990,79,"65-80",2,"YEARS","WHITE",1,"M","NOT HISPANIC OR LATINO","Y","Y","Y","Y","Y","Y","","","",25.6,"25-<30",165.1,69.9,8,18815,32.4,">=12",19800,"2014-03-20","2014-09-20",12,19986,"COMPLETED","COMPLETED","",22],[219,"CDISCPILOT01","01-716-1108","1108","716","716","Placebo","Placebo",0,"Placebo",0,19401,19580,180,0,0,86,">80",3,"YEARS","WHITE",1,"F","NOT HISPANIC OR LATINO","Y","Y","Y","Y","Y","Y","","","",26,"25-<30",142.2,52.6,12,19037,11.7,"<12",19393,"2013-02-12","2013-08-10",12,19580,"COMPLETED","COMPLETED","",21],[220,"CDISCPILOT01","01-716-1151","1151","716","716","Xanomeline Low Dose","Xanomeline Low Dose",54,"Xanomeline Low Dose",54,19390,19489,100,54,5400,83,">80",3,"YEARS","WHITE",1,"F","NOT HISPANIC OR LATINO","Y","Y","Y","Y","Y","N","Y","Y","",19.7,"<25",152.4,45.8,18,18338,34.3,">=12",19381,"2013-02-01","2013-06-07",10,19516,"ADVERSE EVENT","DISCONTINUED","Adverse Event",22],[221,"CDISCPILOT01","01-716-1157","1157","716","716","Xanomeline Low Dose","Xanomeline Low Dose",54,"Xanomeline Low Dose",54,19633,19817,185,54,9990,85,">80",3,"YEARS","WHITE",1,"M","NOT HISPANIC OR LATINO","Y","Y","Y","Y","Y","Y","","","",23.2,"<25",160,59.4,14,17632,65.5,">=12",19624,"2013-10-02","2014-04-05",12,19818,"COMPLETED","COMPLETED","",20],[222,"CDISCPILOT01","01-716-1160","1160","716","716","Placebo","Placebo",0,"Placebo",0,19453,19642,190,0,0,83,">80",3,"YEARS","WHITE",1,"F","NOT HISPANIC OR LATINO","Y","Y","Y","Y","Y","Y","","","",24.1,"<25",157.5,59.9,12,18782,21.7,">=12",19440,"2013-04-05","2013-10-11",12,19642,"COMPLETED","COMPLETED","",23],[223,"CDISCPILOT01","01-716-1167","1167","716","716","Xanomeline Low Dose","Xanomeline Low Dose",54,"Xanomeline Low Dose",54,19274,19460,187,54,10098,68,"65-80",2,"YEARS","WHITE",1,"M","NOT HISPANIC OR LATINO","Y","Y","Y","Y","Y","Y","","","",24.8,"<25",158.8,62.6,12,18996,8.9,"<12",19266,"2012-10-08","2013-04-13",12,19461,"COMPLETED","COMPLETED","",19],[224,"CDISCPILOT01","01-716-1177","1177","716","716","Placebo","Placebo",0,"Placebo",0,19968,20152,185,0,0,72,"65-80",2,"YEARS","WHITE",1,"M","NOT HISPANIC OR LATINO","Y","Y","Y","Y","Y","Y","","","",27.3,"25-<30",177.8,86.2,12,19456,16.7,">=12",19964,"2014-09-02","2015-03-05",12,20152,"COMPLETED","COMPLETED","",21],[225,"CDISCPILOT01","01-716-1189","1189","716","716","Xanomeline High Dose","Xanomeline High Dose",81,"Xanomeline High Dose",81,19275,19416,142,78,11070,81,">80",3,"YEARS","WHITE",1,"M","NOT HISPANIC OR LATINO","Y","Y","Y","Y","Y","N","Y","Y","",27.4,"25-<30",163.8,73.5,9,17763,49.6,">=12",19273,"2012-10-09","2013-03-03",11,19420,"ADVERSE EVENT","DISCONTINUED","Adverse Event",21],[226,"CDISCPILOT01","01-716-1229","1229","716","716","Xanomeline High Dose","Xanomeline High Dose",81,"Xanomeline High Dose",81,19409,19448,40,70.9,2835,73,"65-80",2,"YEARS","WHITE",1,"F","NOT HISPANIC OR LATINO","Y","Y","Y","N","N","N","Y","Y","",24.6,"<25",161.3,64,16,18848,18.3,">=12",19403,"2013-02-20","2013-04-02",7,19450,"ADVERSE EVENT","DISCONTINUED","Adverse Event",22],[227,"CDISCPILOT01","01-716-1298","1298","716","716","Xanomeline Low Dose","Xanomeline Low Dose",54,"Xanomeline Low Dose",54,19456,19537,82,54,4428,76,"65-80",2,"YEARS","WHITE",1,"F","NOT HISPANIC OR LATINO","Y","Y","Y","Y","N","N","Y","Y","",29.4,"25-<30",156.2,71.7,12,17667,58.7,">=12",19452,"2013-04-08","2013-07-06",9,19545,"ADVERSE EVENT","DISCONTINUED","Adverse Event",11],[228,"CDISCPILOT01","01-716-1308","1308","716","716","Placebo","Placebo",0,"Placebo",0,19598,19638,41,0,0,76,"65-80",2,"YEARS","WHITE",1,"F","NOT HISPANIC OR LATINO","Y","Y","Y","N","N","N","Y","","",23.6,"<25",157.5,58.5,13,18218,45.2,">=12",19593,"2013-08-28","2013-10-07",7,19638,"WITHDRAWAL BY SUBJECT","DISCONTINUED","Withdrew Consent",13],[229,"CDISCPILOT01","01-716-1311","1311","716","716","Xanomeline Low Dose","Xanomeline Low Dose",54,"Xanomeline Low Dose",54,19857,19987,131,54,7074,78,"65-80",2,"YEARS","WHITE",1,"M","NOT HISPANIC OR LATINO","Y","Y","Y","Y","Y","N","Y","","",27.1,"25-<30",172.7,80.7,14,15872,130.8,">=12",19851,"2014-05-14","2014-09-30",11,19996,"WITHDRAWAL BY SUBJECT","DISCONTINUED","Withdrew Consent",11],[230,"CDISCPILOT01","01-716-1364","1364","716","716","Xanomeline High Dose","Xanomeline High Dose",81,"Xanomeline High Dose",81,19543,19732,190,76.6,14553,84,">80",3,"YEARS","WHITE",1,"F","NOT HISPANIC OR LATINO","Y","Y","Y","Y","Y","Y","","","",20.4,"<25",162.6,54,12,18484,34.6,">=12",19536,"2013-07-04","2014-01-09",12,19732,"COMPLETED","COMPLETED","",17],[231,"CDISCPILOT01","01-716-1373","1373","716","716","Xanomeline High Dose","Xanomeline High Dose",81,"Xanomeline High Dose",81,19341,19416,76,75,5697,74,"65-80",2,"YEARS","WHITE",1,"M","NOT HISPANIC OR LATINO","Y","Y","Y","Y","N","N","Y","Y","",32,">=30",147.3,69.4,16,18038,42.2,">=12",19321,"2012-12-14","2013-02-28",9,19417,"ADVERSE EVENT","DISCONTINUED","Adverse Event",23],[232,"CDISCPILOT01","01-716-1418","1418","716","716","Xanomeline High Dose","Xanomeline High Dose",81,"Xanomeline High Dose",81,19483,19682,200,77.1,15417,80,"65-80",2,"YEARS","WHITE",1,"F","NOT HISPANIC OR LATINO","Y","Y","Y","Y","Y","Y","","","",25.3,"25-<30",165.1,69,8,18384,35.9,">=12",19475,"2013-05-05","2013-11-20",12,19682,"COMPLETED","COMPLETED","",20],[233,"CDISCPILOT01","01-716-1441","1441","716","716","Placebo","Placebo",0,"Placebo",0,19745,19926,182,0,0,85,">80",3,"YEARS","WHITE",1,"M","NOT HISPANIC OR LATINO","Y","Y","Y","Y","Y","Y","","","",27.5,"25-<30",144.8,57.6,10,18407,43.7,">=12",19736,"2014-01-22","2014-07-22",12,19926,"COMPLETED","COMPLETED","",22],[234,"CDISCPILOT01","01-716-1447","1447","716","716","Xanomeline High Dose","Xanomeline High Dose",81,"Xanomeline High Dose",81,19708,19891,184,77.2,14202,72,"65-80",2,"YEARS","WHITE",1,"F","NOT HISPANIC OR LATINO","Y","Y","Y","Y","Y","Y","","","",24.2,"<25",149.9,54.4,14,18397,42.9,">=12",19702,"2013-12-16","2014-06-17",12,19891,"COMPLETED","COMPLETED","",22],[235,"CDISCPILOT01","01-717-1004","1004","717","900","Xanomeline Low Dose","Xanomeline Low Dose",54,"Xanomeline Low Dose",54,19737,19920,184,54,9936,80,"65-80",2,"YEARS","WHITE",1,"F","NOT HISPANIC OR LATINO","Y","Y","Y","Y","Y","Y","","","",30.2,">=30",135.9,55.8,15,18390,43.9,">=12",19724,"2014-01-14","2014-07-16",12,19920,"COMPLETED","COMPLETED","",13],[236,"CDISCPILOT01","01-717-1109","1109","717","900","Xanomeline High Dose","Xanomeline High Dose",81,"Xanomeline High Dose",81,19750,19932,183,77.3,14148,84,">80",3,"YEARS","WHITE",1,"M","NOT HISPANIC OR LATINO","Y","Y","Y","Y","Y","Y","","","",13.7,"<25",180.3,44.5,17,19063,22.4,">=12",19743,"2014-01-27","2014-07-28",12,19932,"COMPLETED","COMPLETED","",20],[237,"CDISCPILOT01","01-717-1174","1174","717","900","Xanomeline High Dose","Xanomeline High Dose",81,"Xanomeline High Dose",81,19380,19563,184,76.5,14067,73,"65-80",2,"YEARS","WHITE",1,"M","NOT HISPANIC OR LATINO","Y","Y","Y","Y","Y","Y","","","",24.2,"<25",167.6,68,16,18507,28.5,">=12",19374,"2013-01-22","2013-07-24",12,19563,"COMPLETED","COMPLETED","",22],[238,"CDISCPILOT01","01-717-1201","1201","717","900","Placebo","Placebo",0,"Placebo",0,19711,19775,65,0,0,85,">80",3,"YEARS","WHITE",1,"F","NOT HISPANIC OR LATINO","Y","Y","Y","Y","N","N","Y","","",26.6,"25-<30",160,68,12,18709,32.7,">=12",19704,"2013-12-19","2014-02-21",8,19775,"LACK OF EFFICACY","DISCONTINUED","Lack of Efficacy",23],[239,"CDISCPILOT01","01-717-1344","1344","717","900","Placebo","Placebo",0,"Placebo",0,19734,19796,63,0,0,64,"<65",1,"YEARS","WHITE",1,"F","NOT HISPANIC OR LATINO","Y","Y","Y","Y","N","N","Y","","",21.7,"<25",163.5,58.1,16,17785,63.7,">=12",19724,"2014-01-11","2014-03-14",8,19796,"LACK OF EFFICACY","DISCONTINUED","Lack of Efficacy",21],[240,"CDISCPILOT01","01-717-1357","1357","717","900","Xanomeline High Dose","Xanomeline High Dose",81,"Xanomeline High Dose",81,19479,19645,167,78.6,13122,77,"65-80",2,"YEARS","WHITE",1,"M","NOT HISPANIC OR LATINO","Y","Y","Y","Y","Y","Y","Y","","",24.7,"<25",181.6,81.3,14,18313,38,">=12",19469,"2013-05-01","2013-10-20",12,19651,"STUDY TERMINATED BY SPONSOR","DISCONTINUED","Sponsor Decision",12],[241,"CDISCPILOT01","01-717-1446","1446","717","900","Xanomeline Low Dose","Xanomeline Low Dose",54,"Xanomeline Low Dose",54,19602,19785,184,54,9936,75,"65-80",2,"YEARS","WHITE",1,"F","NOT HISPANIC OR LATINO","Y","Y","Y","Y","Y","Y","","","",19.3,"<25",156.2,47.2,12,18303,42.3,">=12",19590,"2013-09-01","2014-03-04",12,19786,"COMPLETED","COMPLETED","",21],[242,"CDISCPILOT01","01-718-1066","1066","718","718","Xanomeline Low Dose","Xanomeline Low Dose",54,"Xanomeline Low Dose",54,19546,19555,10,54,540,79,"65-80",2,"YEARS","WHITE",1,"F","NOT HISPANIC OR LATINO","Y","Y","Y","N","N","N","Y","Y","",20,"<25",158.8,50.4,14,18780,24.9,">=12",19537,"2013-07-07","2013-07-30",4,19569,"ADVERSE EVENT","DISCONTINUED","Adverse Event",20],[243,"CDISCPILOT01","01-718-1079","1079","718","718","Xanomeline Low Dose","Xanomeline Low Dose",54,"Xanomeline Low Dose",54,19255,19297,43,54,2322,67,"65-80",2,"YEARS","WHITE",1,"F","NOT HISPANIC OR LATINO","Y","Y","Y","N","N","N","Y","Y","",20,"<25",158.8,50.4,16,16614,86.5,">=12",19247,"2012-09-19","2012-11-06",7,19303,"ADVERSE EVENT","DISCONTINUED","Adverse Event",17],[244,"CDISCPILOT01","01-718-1101","1101","718","718","Xanomeline High Dose","Xanomeline High Dose",81,"Xanomeline High Dose",81,19406,19570,165,78.5,12960,82,">80",3,"YEARS","BLACK OR AFRICAN AMERICAN",2,"M","NOT HISPANIC OR LATINO","Y","Y","Y","Y","Y","Y","Y","","",23.2,"<25",186.2,80.3,12,17636,57.7,">=12",19390,"2013-02-17","2013-08-02",12,19572,"STUDY TERMINATED BY SPONSOR","DISCONTINUED","Sponsor Decision",13],[245,"CDISCPILOT01","01-718-1139","1139","718","718","Placebo","Placebo",0,"Placebo",0,19497,19679,183,0,0,77,"65-80",2,"YEARS","WHITE",1,"M","NOT HISPANIC OR LATINO","Y","Y","Y","Y","Y","Y","","","",22.4,"<25",171.5,65.8,14,17620,61.2,">=12",19481,"2013-05-19","2013-11-17",12,19679,"COMPLETED","COMPLETED","",16],[246,"CDISCPILOT01","01-718-1150","1150","718","718","Placebo","Placebo",0,"Placebo",0,19377,19568,192,0,0,73,"65-80",2,"YEARS","WHITE",1,"F","NOT HISPANIC OR LATINO","Y","Y","Y","Y","Y","Y","","","",22.5,"<25",156.2,54.9,16,19063,10.1,"<12",19370,"2013-01-19","2013-07-31",12,19570,"COMPLETED","COMPLETED","",22],[247,"CDISCPILOT01","01-718-1170","1170","718","718","Xanomeline Low Dose","Xanomeline Low Dose",54,"Xanomeline Low Dose",54,19617,19643,27,54,1458,80,"65-80",2,"YEARS","WHITE",1,"F","NOT HISPANIC OR LATINO","Y","Y","Y","N","N","N","Y","Y","",21.8,"<25",162.6,57.6,12,19230,12,">=12",19595,"2013-09-16","2013-11-03",5,19665,"ADVERSE EVENT","DISCONTINUED","Adverse Event",19],[248,"CDISCPILOT01","01-718-1172","1172","718","718","Placebo","Placebo",0,"Placebo",0,19622,19691,70,0,0,74,"65-80",2,"YEARS","WHITE",1,"M","NOT HISPANIC OR LATINO","Y","Y","Y","Y","N","N","Y","","",21.9,"<25",174,66.2,21,18901,23.5,">=12",19616,"2013-09-21","2013-11-29",9,19691,"WITHDRAWAL BY SUBJECT","DISCONTINUED","Withdrew Consent",10],[249,"CDISCPILOT01","01-718-1250","1250","718","718","Xanomeline Low Dose","Xanomeline Low Dose",54,"Xanomeline Low Dose",54,19622,19754,133,54,7182,82,">80",3,"YEARS","WHITE",1,"F","HISPANIC OR LATINO","Y","Y","Y","Y","Y","N","Y","Y","",23.6,"<25",157.5,58.5,21,17764,60.1,">=12",19591,"2013-09-21","2014-02-08",11,19762,"ADVERSE EVENT","DISCONTINUED","Adverse Event",18],[250,"CDISCPILOT01","01-718-1254","1254","718","718","Xanomeline Low Dose","Xanomeline Low Dose",54,"Xanomeline Low Dose",54,19549,19732,184,54,9936,78,"65-80",2,"YEARS","WHITE",1,"M","HISPANIC OR LATINO","Y","Y","Y","Y","Y","Y","","","",28.3,"25-<30",170.2,82.1,18,18882,21.6,">=12",19537,"2013-07-10","2014-01-09",12,19732,"COMPLETED","COMPLETED","",16],[251,"CDISCPILOT01","01-718-1328","1328","718","718","Xanomeline High Dose","Xanomeline High Dose",81,"Xanomeline High Dose",81,19390,19466,77,76.1,5859,86,">80",3,"YEARS","WHITE",1,"M","NOT HISPANIC OR LATINO","Y","Y","Y","Y","N","N","Y","","",21.9,"<25",170.2,63.5,12,18273,36.6,">=12",19386,"2013-02-01","2013-05-01",9,19479,"WITHDRAWAL BY SUBJECT","DISCONTINUED","Withdrew Consent",13],[252,"CDISCPILOT01","01-718-1355","1355","718","718","Placebo","Placebo",0,"Placebo",0,19417,19599,183,0,0,79,"65-80",2,"YEARS","WHITE",1,"M","NOT HISPANIC OR LATINO","Y","Y","Y","Y","Y","Y","","","",20.8,"<25",167.6,58.5,15,17871,50.3,">=12",19401,"2013-02-28","2013-08-29",12,19599,"COMPLETED","COMPLETED","",16],[253,"CDISCPILOT01","01-718-1371","1371","718","718","Xanomeline High Dose","Xanomeline High Dose",81,"Xanomeline High Dose",81,19474,19571,98,77.4,7587,69,"65-80",2,"YEARS","WHITE",1,"F","NOT HISPANIC OR LATINO","Y","Y","Y","Y","N","N","Y","Y","",27.8,"25-<30",154.9,66.7,10,19393,2.2,"<12",19459,"2013-04-26","2013-08-08",9,19578,"ADVERSE EVENT","DISCONTINUED","Adverse Event",16],[254,"CDISCPILOT01","01-718-1427","1427","718","718","Xanomeline High Dose","Xanomeline High Dose",81,"Xanomeline High Dose",81,19344,19400,57,73.9,4212,74,"65-80",2,"YEARS","BLACK OR AFRICAN AMERICAN",2,"F","NOT HISPANIC OR LATINO","Y","Y","Y","Y","N","N","Y","","",20.5,"<25",158.8,51.7,16,18385,31.4,">=12",19340,"2012-12-17","2013-02-18",8,19407,"LACK OF EFFICACY","DISCONTINUED","Lack of Efficacy",19]]}}}}