{"fileOID":"www.cdisc.org/StudyMSGv2/1/Define-XML_2.1.0/2023-06-21/adtte","creationDateTime":"2023-06-21T21:29:48","datasetJSONVersion":"1.0.0","originator":"CDISC ADaM MSG Team","sourceSystem":"Sponsor System","sourceSystemVersion":"1.0","clinicalData":{"studyOID":"TDF_ADaM.ADaMIG.1.1","metaDataVersionOID":"MDV.TDF_ADaM.ADaMIG.1.1","metaDataRef":"https://metadata.location.org/TDF_ADaM_ADaMIG11/define.xml","itemGroupData":{"IG.ADTTE":{"records":254,"name":"ADTTE","label":"","items":[{"OID":"ITEMGROUPDATASEQ","name":"ITEMGROUPDATASEQ","label":"Record Identifier","type":"integer"},{"OID":"IT.ADTTE.STUDYID","name":"STUDYID","label":"Study Identifier","type":"string","length":12,"displayFormat":"$12."},{"OID":"IT.ADTTE.SITEID","name":"SITEID","label":"Study Site Identifier","type":"string","length":3,"displayFormat":"$3."},{"OID":"IT.ADTTE.USUBJID","name":"USUBJID","label":"Unique Subject Identifier","type":"string","length":11,"displayFormat":"$11."},{"OID":"IT.ADTTE.AGE","name":"AGE","label":"Age","type":"float","length":8,"displayFormat":"3."},{"OID":"IT.ADTTE.AGEGR1","name":"AGEGR1","label":"Pooled Age Group 1","type":"string","length":5,"displayFormat":"$5."},{"OID":"IT.ADTTE.AGEGR1N","name":"AGEGR1N","label":"Pooled Age Group 1 (N)","type":"float","length":8,"displayFormat":"3."},{"OID":"IT.ADTTE.RACE","name":"RACE","label":"Race","type":"string","length":32,"displayFormat":"$32."},{"OID":"IT.ADTTE.RACEN","name":"RACEN","label":"Race (N)","type":"float","length":8,"displayFormat":"3."},{"OID":"IT.ADTTE.SEX","name":"SEX","label":"Sex","type":"string","length":1,"displayFormat":"$1."},{"OID":"IT.ADTTE.TRTSDT","name":"TRTSDT","label":"Date of First Exposure to Treatment","type":"float","length":8,"displayFormat":"DATE9."},{"OID":"IT.ADTTE.TRTEDT","name":"TRTEDT","label":"Date of Last Exposure to Treatment","type":"float","length":8,"displayFormat":"DATE9."},{"OID":"IT.ADTTE.TRTDUR","name":"TRTDUR","label":"Duration of treatment (days)","type":"float","length":8,"displayFormat":"3."},{"OID":"IT.ADTTE.TRTP","name":"TRTP","label":"Planned Treatment","type":"string","length":20,"displayFormat":"$20."},{"OID":"IT.ADTTE.TRTA","name":"TRTA","label":"Actual Treatment","type":"string","length":20,"displayFormat":"$20."},{"OID":"IT.ADTTE.TRTAN","name":"TRTAN","label":"Actual Treatment (N)","type":"float","length":8},{"OID":"IT.ADTTE.PARAM","name":"PARAM","label":"Parameter","type":"string","length":32,"displayFormat":"$32."},{"OID":"IT.ADTTE.PARAMCD","name":"PARAMCD","label":"Parameter Code","type":"string","length":4,"displayFormat":"$4."},{"OID":"IT.ADTTE.AVAL","name":"AVAL","label":"Analysis Value","type":"float","length":8},{"OID":"IT.ADTTE.STARTDT","name":"STARTDT","label":"Time-to-Event Origin Date for Subject","type":"float","length":8,"displayFormat":"DATE9."},{"OID":"IT.ADTTE.ADT","name":"ADT","label":"Analysis Date","type":"float","length":8,"displayFormat":"DATE9."},{"OID":"IT.ADTTE.CNSR","name":"CNSR","label":"Censor","type":"float","length":8},{"OID":"IT.ADTTE.EVNTDESC","name":"EVNTDESC","label":"Event or Censoring Description","type":"string","length":25,"displayFormat":"$25."},{"OID":"IT.ADTTE.SRCDOM","name":"SRCDOM","label":"Source Data","type":"string","length":4,"displayFormat":"$4."},{"OID":"IT.ADTTE.SRCVAR","name":"SRCVAR","label":"Source Variable","type":"string","length":6,"displayFormat":"$6."},{"OID":"IT.ADTTE.SRCSEQ","name":"SRCSEQ","label":"Source Sequence Number","type":"float","length":8},{"OID":"IT.ADTTE.SAFFL","name":"SAFFL","label":"Safety Population Flag","type":"string","length":1,"displayFormat":"$1."}],"itemData":[[1,"CDISCPILOT01","701","01-701-1015",63,"<65",1,"WHITE",1,"F",19725,19906,182,"Placebo","Placebo",0,"Time to First Dermatologic Event","TTDE",2,19725,19726,0,"Dematologic Event Occured","ADAE","ASTDT",1,"Y"],[2,"CDISCPILOT01","701","01-701-1023",64,"<65",1,"WHITE",1,"M",19210,19237,28,"Placebo","Placebo",0,"Time to First Dermatologic Event","TTDE",3,19210,19212,0,"Dematologic Event Occured","ADAE","ASTDT",1,"Y"],[3,"CDISCPILOT01","701","01-701-1028",71,"65-80",2,"WHITE",1,"M",19558,19737,180,"Xanomeline High Dose","Xanomeline High Dose",81,"Time to First Dermatologic Event","TTDE",3,19558,19560,0,"Dematologic Event Occured","ADAE","ASTDT",1,"Y"],[4,"CDISCPILOT01","701","01-701-1033",74,"65-80",2,"WHITE",1,"M",19800,19813,14,"Xanomeline Low Dose","Xanomeline Low Dose",54,"Time to First Dermatologic Event","TTDE",28,19800,19827,1,"Study Completion Date","ADSL","RFENDT",null,"Y"],[5,"CDISCPILOT01","701","01-701-1034",77,"65-80",2,"WHITE",1,"F",19905,20087,183,"Xanomeline High Dose","Xanomeline High Dose",81,"Time to First Dermatologic Event","TTDE",58,19905,19962,0,"Dematologic Event Occured","ADAE","ASTDT",1,"Y"],[6,"CDISCPILOT01","701","01-701-1047",85,">80",3,"WHITE",1,"F",19401,19426,26,"Placebo","Placebo",0,"Time to First Dermatologic Event","TTDE",46,19401,19446,1,"Study Completion Date","ADSL","RFENDT",null,"Y"],[7,"CDISCPILOT01","701","01-701-1097",68,"65-80",2,"WHITE",1,"M",19724,19913,190,"Xanomeline Low Dose","Xanomeline Low Dose",54,"Time to First Dermatologic Event","TTDE",3,19724,19726,0,"Dematologic Event Occured","ADAE","ASTDT",1,"Y"],[8,"CDISCPILOT01","701","01-701-1111",81,">80",3,"WHITE",1,"F",19243,19252,10,"Xanomeline Low Dose","Xanomeline Low Dose",54,"Time to First Dermatologic Event","TTDE",11,19243,19253,1,"Study Completion Date","ADSL","RFENDT",null,"Y"],[9,"CDISCPILOT01","701","01-701-1115",84,">80",3,"WHITE",1,"M",19327,19381,55,"Xanomeline Low Dose","Xanomeline Low Dose",54,"Time to First Dermatologic Event","TTDE",3,19327,19329,0,"Dematologic Event Occured","ADAE","ASTDT",1,"Y"],[10,"CDISCPILOT01","701","01-701-1118",52,"<65",1,"WHITE",1,"M",19794,19975,182,"Placebo","Placebo",0,"Time to First Dermatologic Event","TTDE",182,19794,19975,1,"Study Completion Date","ADSL","RFENDT",null,"Y"],[11,"CDISCPILOT01","701","01-701-1130",84,">80",3,"WHITE",1,"M",19769,19951,183,"Placebo","Placebo",0,"Time to First Dermatologic Event","TTDE",97,19769,19865,0,"Dematologic Event Occured","ADAE","ASTDT",7,"Y"],[12,"CDISCPILOT01","701","01-701-1133",81,">80",3,"WHITE",1,"F",19294,19476,183,"Xanomeline High Dose","Xanomeline High Dose",81,"Time to First Dermatologic Event","TTDE",61,19294,19354,0,"Dematologic Event Occured","ADAE","ASTDT",1,"Y"],[13,"CDISCPILOT01","701","01-701-1146",75,"65-80",2,"WHITE",1,"F",19498,19535,38,"Xanomeline High Dose","Xanomeline High Dose",81,"Time to First Dermatologic Event","TTDE",13,19498,19510,0,"Dematologic Event Occured","ADAE","ASTDT",3,"Y"],[14,"CDISCPILOT01","701","01-701-1148",57,"<65",1,"WHITE",1,"M",19593,19774,182,"Xanomeline High Dose","Xanomeline High Dose",81,"Time to First Dermatologic Event","TTDE",3,19593,19595,0,"Dematologic Event Occured","ADAE","ASTDT",1,"Y"],[15,"CDISCPILOT01","701","01-701-1153",79,"65-80",2,"WHITE",1,"F",19624,19798,175,"Placebo","Placebo",0,"Time to First Dermatologic Event","TTDE",191,19624,19814,1,"Study Completion Date","ADSL","RFENDT",null,"Y"],[16,"CDISCPILOT01","701","01-701-1180",56,"<65",1,"WHITE",1,"M",19401,19435,35,"Xanomeline High Dose","Xanomeline High Dose",81,"Time to First Dermatologic Event","TTDE",36,19401,19436,0,"Dematologic Event Occured","ADAE","ASTDT",7,"Y"],[17,"CDISCPILOT01","701","01-701-1181",79,"65-80",2,"WHITE",1,"F",19697,19701,5,"Xanomeline High Dose","Xanomeline High Dose",81,"Time to First Dermatologic Event","TTDE",8,19697,19704,1,"Study Completion Date","ADSL","RFENDT",null,"Y"],[18,"CDISCPILOT01","701","01-701-1188",71,"65-80",2,"WHITE",1,"M",19404,19441,38,"Xanomeline Low Dose","Xanomeline Low Dose",54,"Time to First Dermatologic Event","TTDE",2,19404,19405,0,"Dematologic Event Occured","ADAE","ASTDT",1,"Y"],[19,"CDISCPILOT01","701","01-701-1192",80,"65-80",2,"WHITE",1,"F",19196,19378,183,"Xanomeline Low Dose","Xanomeline Low Dose",54,"Time to First Dermatologic Event","TTDE",17,19196,19212,0,"Dematologic Event Occured","ADAE","ASTDT",3,"Y"],[20,"CDISCPILOT01","701","01-701-1203",81,">80",3,"BLACK OR AFRICAN AMERICAN",2,"F",19391,19573,183,"Placebo","Placebo",0,"Time to First Dermatologic Event","TTDE",183,19391,19573,1,"Study Completion Date","ADSL","RFENDT",null,"Y"],[21,"CDISCPILOT01","701","01-701-1211",76,"65-80",2,"WHITE",1,"F",19312,19370,59,"Xanomeline Low Dose","Xanomeline Low Dose",54,"Time to First Dermatologic Event","TTDE",2,19312,19313,0,"Dematologic Event Occured","ADAE","ASTDT",1,"Y"],[22,"CDISCPILOT01","701","01-701-1234",69,"65-80",2,"WHITE",1,"M",19447,19623,177,"Placebo","Placebo",0,"Time to First Dermatologic Event","TTDE",177,19447,19623,1,"Study Completion Date","ADSL","RFENDT",null,"Y"],[23,"CDISCPILOT01","701","01-701-1239",56,"<65",1,"WHITE",1,"M",19734,19914,181,"Xanomeline High Dose","Xanomeline High Dose",81,"Time to First Dermatologic Event","TTDE",2,19734,19735,0,"Dematologic Event Occured","ADAE","ASTDT",1,"Y"],[24,"CDISCPILOT01","701","01-701-1275",61,"<65",1,"AMERICAN INDIAN OR ALASKA NATIVE",6,"M",19761,19874,114,"Xanomeline High Dose","Xanomeline High Dose",81,"Time to First Dermatologic Event","TTDE",18,19761,19778,0,"Dematologic Event Occured","ADAE","ASTDT",3,"Y"],[25,"CDISCPILOT01","701","01-701-1287",56,"<65",1,"WHITE",1,"F",19748,19930,183,"Xanomeline High Dose","Xanomeline High Dose",81,"Time to First Dermatologic Event","TTDE",29,19748,19776,0,"Dematologic Event Occured","ADAE","ASTDT",2,"Y"],[26,"CDISCPILOT01","701","01-701-1294",67,"65-80",2,"WHITE",1,"M",19441,19523,83,"Xanomeline Low Dose","Xanomeline Low Dose",54,"Time to First Dermatologic Event","TTDE",57,19441,19497,0,"Dematologic Event Occured","ADAE","ASTDT",2,"Y"],[27,"CDISCPILOT01","701","01-701-1302",61,"<65",1,"WHITE",1,"M",19599,19667,69,"Xanomeline High Dose","Xanomeline High Dose",81,"Time to First Dermatologic Event","TTDE",2,19599,19600,0,"Dematologic Event Occured","ADAE","ASTDT",1,"Y"],[28,"CDISCPILOT01","701","01-701-1317",68,"65-80",2,"WHITE",1,"M",19865,20047,183,"Xanomeline Low Dose","Xanomeline Low Dose",54,"Time to First Dermatologic Event","TTDE",33,19865,19897,0,"Dematologic Event Occured","ADAE","ASTDT",3,"Y"],[29,"CDISCPILOT01","701","01-701-1324",79,"65-80",2,"WHITE",1,"M",19268,19450,183,"Xanomeline Low Dose","Xanomeline Low Dose",54,"Time to First Dermatologic Event","TTDE",21,19268,19288,0,"Dematologic Event Occured","ADAE","ASTDT",1,"Y"],[30,"CDISCPILOT01","701","01-701-1341",51,"<65",1,"WHITE",1,"M",19363,19384,22,"Xanomeline Low Dose","Xanomeline Low Dose",54,"Time to First Dermatologic Event","TTDE",15,19363,19377,0,"Dematologic Event Occured","ADAE","ASTDT",1,"Y"],[31,"CDISCPILOT01","701","01-701-1345",63,"<65",1,"WHITE",1,"F",19639,19800,162,"Placebo","Placebo",0,"Time to First Dermatologic Event","TTDE",162,19639,19800,1,"Study Completion Date","ADSL","RFENDT",null,"Y"],[32,"CDISCPILOT01","701","01-701-1360",67,"65-80",2,"WHITE",1,"M",19570,19575,6,"Xanomeline High Dose","Xanomeline High Dose",81,"Time to First Dermatologic Event","TTDE",3,19570,19572,0,"Dematologic Event Occured","ADAE","ASTDT",1,"Y"],[33,"CDISCPILOT01","701","01-701-1363",81,">80",3,"BLACK OR AFRICAN AMERICAN",2,"F",19508,19689,182,"Placebo","Placebo",0,"Time to First Dermatologic Event","TTDE",48,19508,19555,0,"Dematologic Event Occured","ADAE","ASTDT",3,"Y"],[34,"CDISCPILOT01","701","01-701-1383",72,"65-80",2,"WHITE",1,"F",19393,19576,184,"Xanomeline High Dose","Xanomeline High Dose",81,"Time to First Dermatologic Event","TTDE",4,19393,19396,0,"Dematologic Event Occured","ADAE","ASTDT",1,"Y"],[35,"CDISCPILOT01","701","01-701-1387",87,">80",3,"WHITE",1,"F",19794,19807,14,"Placebo","Placebo",0,"Time to First Dermatologic Event","TTDE",14,19794,19807,1,"Study Completion Date","ADSL","RFENDT",null,"Y"],[36,"CDISCPILOT01","701","01-701-1392",78,"65-80",2,"WHITE",1,"M",19294,19476,183,"Placebo","Placebo",0,"Time to First Dermatologic Event","TTDE",183,19294,19476,1,"Study Completion Date","ADSL","RFENDT",null,"Y"],[37,"CDISCPILOT01","701","01-701-1415",85,">80",3,"WHITE",1,"M",19624,19806,183,"Placebo","Placebo",0,"Time to First Dermatologic Event","TTDE",183,19624,19806,1,"Study Completion Date","ADSL","RFENDT",null,"Y"],[38,"CDISCPILOT01","701","01-701-1429",84,">80",3,"WHITE",1,"F",19436,19478,43,"Xanomeline Low Dose","Xanomeline Low Dose",54,"Time to First Dermatologic Event","TTDE",43,19436,19478,1,"Study Completion Date","ADSL","RFENDT",null,"Y"],[39,"CDISCPILOT01","701","01-701-1440",70,"65-80",2,"WHITE",1,"M",19578,19759,182,"Placebo","Placebo",0,"Time to First Dermatologic Event","TTDE",182,19578,19759,1,"Study Completion Date","ADSL","RFENDT",null,"Y"],[40,"CDISCPILOT01","701","01-701-1442",57,"<65",1,"BLACK OR AFRICAN AMERICAN",2,"F",19657,19839,183,"Xanomeline Low Dose","Xanomeline Low Dose",54,"Time to First Dermatologic Event","TTDE",77,19657,19733,0,"Dematologic Event Occured","ADAE","ASTDT",1,"Y"],[41,"CDISCPILOT01","701","01-701-1444",63,"<65",1,"WHITE",1,"M",19363,19401,39,"Xanomeline High Dose","Xanomeline High Dose",81,"Time to First Dermatologic Event","TTDE",15,19363,19377,0,"Dematologic Event Occured","ADAE","ASTDT",1,"Y"],[42,"CDISCPILOT01","702","01-702-1082",84,">80",3,"WHITE",1,"F",19565,19644,80,"Xanomeline Low Dose","Xanomeline Low Dose",54,"Time to First Dermatologic Event","TTDE",46,19565,19610,0,"Dematologic Event Occured","ADAE","ASTDT",9,"Y"],[43,"CDISCPILOT01","703","01-703-1042",64,"<65",1,"WHITE",1,"M",19419,19601,183,"Placebo","Placebo",0,"Time to First Dermatologic Event","TTDE",183,19419,19601,1,"Study Completion Date","ADSL","RFENDT",null,"Y"],[44,"CDISCPILOT01","703","01-703-1076",69,"65-80",2,"WHITE",1,"M",19656,19716,61,"Xanomeline High Dose","Xanomeline High Dose",81,"Time to First Dermatologic Event","TTDE",30,19656,19685,0,"Dematologic Event Occured","ADAE","ASTDT",4,"Y"],[45,"CDISCPILOT01","703","01-703-1086",71,"65-80",2,"WHITE",1,"M",19238,19331,94,"Xanomeline Low Dose","Xanomeline Low Dose",54,"Time to First Dermatologic Event","TTDE",12,19238,19249,0,"Dematologic Event Occured","ADAE","ASTDT",1,"Y"],[46,"CDISCPILOT01","703","01-703-1096",81,">80",3,"WHITE",1,"F",19383,19433,51,"Placebo","Placebo",0,"Time to First Dermatologic Event","TTDE",64,19383,19446,1,"Study Completion Date","ADSL","RFENDT",null,"Y"],[47,"CDISCPILOT01","703","01-703-1100",84,">80",3,"WHITE",1,"F",19430,19615,186,"Placebo","Placebo",0,"Time to First Dermatologic Event","TTDE",24,19430,19453,0,"Dematologic Event Occured","ADAE","ASTDT",1,"Y"],[48,"CDISCPILOT01","703","01-703-1119",81,">80",3,"WHITE",1,"F",19409,19522,114,"Xanomeline Low Dose","Xanomeline Low Dose",54,"Time to First Dermatologic Event","TTDE",25,19409,19433,0,"Dematologic Event Occured","ADAE","ASTDT",1,"Y"],[49,"CDISCPILOT01","703","01-703-1175",75,"65-80",2,"WHITE",1,"M",19712,19718,7,"Placebo","Placebo",0,"Time to First Dermatologic Event","TTDE",12,19712,19723,1,"Study Completion Date","ADSL","RFENDT",null,"Y"],[50,"CDISCPILOT01","703","01-703-1182",84,">80",3,"WHITE",1,"M",19648,19703,56,"Xanomeline Low Dose","Xanomeline Low Dose",54,"Time to First Dermatologic Event","TTDE",15,19648,19662,0,"Dematologic Event Occured","ADAE","ASTDT",1,"Y"],[51,"CDISCPILOT01","703","01-703-1197",76,"65-80",2,"BLACK OR AFRICAN AMERICAN",2,"F",19525,19538,14,"Xanomeline Low Dose","Xanomeline Low Dose",54,"Time to First Dermatologic Event","TTDE",37,19525,19561,1,"Study Completion Date","ADSL","RFENDT",null,"Y"],[52,"CDISCPILOT01","703","01-703-1210",72,"65-80",2,"WHITE",1,"F",19433,19607,175,"Placebo","Placebo",0,"Time to First Dermatologic Event","TTDE",175,19433,19607,1,"Study Completion Date","ADSL","RFENDT",null,"Y"],[53,"CDISCPILOT01","703","01-703-1258",78,"65-80",2,"WHITE",1,"F",19194,19369,176,"Xanomeline High Dose","Xanomeline High Dose",81,"Time to First Dermatologic Event","TTDE",47,19194,19240,0,"Dematologic Event Occured","ADAE","ASTDT",4,"Y"],[54,"CDISCPILOT01","703","01-703-1279",72,"65-80",2,"WHITE",1,"F",19491,19512,22,"Xanomeline Low Dose","Xanomeline Low Dose",54,"Time to First Dermatologic Event","TTDE",41,19491,19531,1,"Study Completion Date","ADSL","RFENDT",null,"Y"],[55,"CDISCPILOT01","703","01-703-1295",88,">80",3,"WHITE",1,"F",19683,19832,150,"Xanomeline High Dose","Xanomeline High Dose",81,"Time to First Dermatologic Event","TTDE",180,19683,19862,1,"Study Completion Date","ADSL","RFENDT",null,"Y"],[56,"CDISCPILOT01","703","01-703-1299",81,">80",3,"WHITE",1,"F",19248,19430,183,"Placebo","Placebo",0,"Time to First Dermatologic Event","TTDE",183,19248,19430,1,"Study Completion Date","ADSL","RFENDT",null,"Y"],[57,"CDISCPILOT01","703","01-703-1335",67,"65-80",2,"BLACK OR AFRICAN AMERICAN",2,"F",19799,19850,52,"Xanomeline High Dose","Xanomeline High Dose",81,"Time to First Dermatologic Event","TTDE",69,19799,19867,1,"Study Completion Date","ADSL","RFENDT",null,"Y"],[58,"CDISCPILOT01","703","01-703-1379",81,">80",3,"BLACK OR AFRICAN AMERICAN",2,"F",19623,19803,181,"Xanomeline Low Dose","Xanomeline Low Dose",54,"Time to First Dermatologic Event","TTDE",181,19623,19803,1,"Study Completion Date","ADSL","RFENDT",null,"Y"],[59,"CDISCPILOT01","703","01-703-1403",67,"65-80",2,"WHITE",1,"M",19339,19340,2,"Xanomeline High Dose","Xanomeline High Dose",81,"Time to First Dermatologic Event","TTDE",8,19339,19346,1,"Study Completion Date","ADSL","RFENDT",null,"Y"],[60,"CDISCPILOT01","703","01-703-1439",76,"65-80",2,"WHITE",1,"F",19794,19977,184,"Xanomeline High Dose","Xanomeline High Dose",81,"Time to First Dermatologic Event","TTDE",44,19794,19837,0,"Dematologic Event Occured","ADAE","ASTDT",1,"Y"],[61,"CDISCPILOT01","704","01-704-1008",76,"65-80",2,"WHITE",1,"F",19371,19410,40,"Xanomeline High Dose","Xanomeline High Dose",81,"Time to First Dermatologic Event","TTDE",44,19371,19414,1,"Study Completion Date","ADSL","RFENDT",null,"Y"],[62,"CDISCPILOT01","704","01-704-1009",83,">80",3,"WHITE",1,"M",19597,19626,30,"Xanomeline Low Dose","Xanomeline Low Dose",54,"Time to First Dermatologic Event","TTDE",19,19597,19615,0,"Dematologic Event Occured","ADAE","ASTDT",3,"Y"],[63,"CDISCPILOT01","704","01-704-1010",80,"65-80",2,"WHITE",1,"M",19775,19912,138,"Placebo","Placebo",0,"Time to First Dermatologic Event","TTDE",139,19775,19913,1,"Study Completion Date","ADSL","RFENDT",null,"Y"],[64,"CDISCPILOT01","704","01-704-1017",77,"65-80",2,"WHITE",1,"M",19637,19680,44,"Xanomeline High Dose","Xanomeline High Dose",81,"Time to First Dermatologic Event","TTDE",31,19637,19667,0,"Dematologic Event Occured","ADAE","ASTDT",5,"Y"],[65,"CDISCPILOT01","704","01-704-1025",81,">80",3,"WHITE",1,"F",19628,19655,28,"Xanomeline Low Dose","Xanomeline Low Dose",54,"Time to First Dermatologic Event","TTDE",64,19628,19691,1,"Study Completion Date","ADSL","RFENDT",null,"Y"],[66,"CDISCPILOT01","704","01-704-1065",75,"65-80",2,"WHITE",1,"M",19655,19714,60,"Xanomeline High Dose","Xanomeline High Dose",81,"Time to First Dermatologic Event","TTDE",4,19655,19658,0,"Dematologic Event Occured","ADAE","ASTDT",2,"Y"],[67,"CDISCPILOT01","704","01-704-1074",80,"65-80",2,"WHITE",1,"F",19745,19802,58,"Xanomeline High Dose","Xanomeline High Dose",81,"Time to First Dermatologic Event","TTDE",1,19745,19745,0,"Dematologic Event Occured","ADAE","ASTDT",1,"Y"],[68,"CDISCPILOT01","704","01-704-1093",79,"65-80",2,"WHITE",1,"M",19432,19526,95,"Xanomeline High Dose","Xanomeline High Dose",81,"Time to First Dermatologic Event","TTDE",51,19432,19482,0,"Dematologic Event Occured","ADAE","ASTDT",3,"Y"],[69,"CDISCPILOT01","704","01-704-1114",77,"65-80",2,"WHITE",1,"M",19381,19546,166,"Xanomeline Low Dose","Xanomeline Low Dose",54,"Time to First Dermatologic Event","TTDE",30,19381,19410,0,"Dematologic Event Occured","ADAE","ASTDT",1,"Y"],[70,"CDISCPILOT01","704","01-704-1120",71,"65-80",2,"WHITE",1,"F",19694,19755,62,"Xanomeline Low Dose","Xanomeline Low Dose",54,"Time to First Dermatologic Event","TTDE",22,19694,19715,0,"Dematologic Event Occured","ADAE","ASTDT",1,"Y"],[71,"CDISCPILOT01","704","01-704-1127",84,">80",3,"WHITE",1,"F",19633,19813,181,"Placebo","Placebo",0,"Time to First Dermatologic Event","TTDE",181,19633,19813,1,"Study Completion Date","ADSL","RFENDT",null,"Y"],[72,"CDISCPILOT01","704","01-704-1135",74,"65-80",2,"WHITE",1,"F",19662,19859,198,"Xanomeline Low Dose","Xanomeline Low Dose",54,"Time to First Dermatologic Event","TTDE",39,19662,19700,0,"Dematologic Event Occured","ADAE","ASTDT",1,"Y"],[73,"CDISCPILOT01","704","01-704-1164",67,"65-80",2,"WHITE",1,"F",19255,19452,198,"Placebo","Placebo",0,"Time to First Dermatologic Event","TTDE",198,19255,19452,1,"Study Completion Date","ADSL","RFENDT",null,"Y"],[74,"CDISCPILOT01","704","01-704-1218",81,">80",3,"WHITE",1,"F",19316,19505,190,"Xanomeline Low Dose","Xanomeline Low Dose",54,"Time to First Dermatologic Event","TTDE",190,19316,19505,1,"Study Completion Date","ADSL","RFENDT",null,"Y"],[75,"CDISCPILOT01","704","01-704-1233",87,">80",3,"WHITE",1,"F",19438,19553,116,"Placebo","Placebo",0,"Time to First Dermatologic Event","TTDE",116,19438,19553,1,"Study Completion Date","ADSL","RFENDT",null,"Y"],[76,"CDISCPILOT01","704","01-704-1241",86,">80",3,"WHITE",1,"M",19595,19640,46,"Xanomeline High Dose","Xanomeline High Dose",81,"Time to First Dermatologic Event","TTDE",68,19595,19662,1,"Study Completion Date","ADSL","RFENDT",null,"Y"],[77,"CDISCPILOT01","704","01-704-1260",71,"65-80",2,"WHITE",1,"F",19235,19301,67,"Placebo","Placebo",0,"Time to First Dermatologic Event","TTDE",142,19235,19376,1,"Study Completion Date","ADSL","RFENDT",null,"Y"],[78,"CDISCPILOT01","704","01-704-1266",82,">80",3,"WHITE",1,"M",19644,19698,55,"Xanomeline High Dose","Xanomeline High Dose",81,"Time to First Dermatologic Event","TTDE",5,19644,19648,0,"Dematologic Event Occured","ADAE","ASTDT",2,"Y"],[79,"CDISCPILOT01","704","01-704-1323",68,"65-80",2,"WHITE",1,"F",19547,19575,29,"Xanomeline Low Dose","Xanomeline Low Dose",54,"Time to First Dermatologic Event","TTDE",28,19547,19574,0,"Dematologic Event Occured","ADAE","ASTDT",2,"Y"],[80,"CDISCPILOT01","704","01-704-1325",81,">80",3,"WHITE",1,"M",19836,19908,73,"Xanomeline Low Dose","Xanomeline Low Dose",54,"Time to First Dermatologic Event","TTDE",31,19836,19866,0,"Dematologic Event Occured","ADAE","ASTDT",1,"Y"],[81,"CDISCPILOT01","704","01-704-1332",80,"65-80",2,"WHITE",1,"M",19701,19768,68,"Xanomeline High Dose","Xanomeline High Dose",81,"Time to First Dermatologic Event","TTDE",2,19701,19702,0,"Dematologic Event Occured","ADAE","ASTDT",1,"Y"],[82,"CDISCPILOT01","704","01-704-1351",70,"65-80",2,"WHITE",1,"M",19643,19831,189,"Placebo","Placebo",0,"Time to First Dermatologic Event","TTDE",189,19643,19831,1,"Study Completion Date","ADSL","RFENDT",null,"Y"],[83,"CDISCPILOT01","704","01-704-1388",81,">80",3,"WHITE",1,"M",19334,19520,187,"Placebo","Placebo",0,"Time to First Dermatologic Event","TTDE",195,19334,19528,1,"Study Completion Date","ADSL","RFENDT",null,"Y"],[84,"CDISCPILOT01","704","01-704-1435",74,"65-80",2,"WHITE",1,"M",19314,19367,54,"Placebo","Placebo",0,"Time to First Dermatologic Event","TTDE",57,19314,19370,1,"Study Completion Date","ADSL","RFENDT",null,"Y"],[85,"CDISCPILOT01","704","01-704-1445",75,"65-80",2,"WHITE",1,"M",19854,20028,175,"Placebo","Placebo",0,"Time to First Dermatologic Event","TTDE",175,19854,20028,1,"Study Completion Date","ADSL","RFENDT",null,"Y"],[86,"CDISCPILOT01","705","01-705-1018",69,"65-80",2,"WHITE",1,"F",19544,19551,8,"Placebo","Placebo",0,"Time to First Dermatologic Event","TTDE",8,19544,19551,1,"Study Completion Date","ADSL","RFENDT",null,"Y"],[87,"CDISCPILOT01","705","01-705-1031",56,"<65",1,"WHITE",1,"F",19689,19854,166,"Xanomeline Low Dose","Xanomeline Low Dose",54,"Time to First Dermatologic Event","TTDE",29,19689,19717,0,"Dematologic Event Occured","ADAE","ASTDT",1,"Y"],[88,"CDISCPILOT01","705","01-705-1059",66,"65-80",2,"WHITE",1,"F",19575,19697,123,"Placebo","Placebo",0,"Time to First Dermatologic Event","TTDE",90,19575,19664,0,"Dematologic Event Occured","ADAE","ASTDT",1,"Y"],[89,"CDISCPILOT01","705","01-705-1186",84,">80",3,"WHITE",1,"F",19731,19749,19,"Placebo","Placebo",0,"Time to First Dermatologic Event","TTDE",31,19731,19761,1,"Study Completion Date","ADSL","RFENDT",null,"Y"],[90,"CDISCPILOT01","705","01-705-1199",87,">80",3,"WHITE",1,"M",19617,19629,13,"Xanomeline Low Dose","Xanomeline Low Dose",54,"Time to First Dermatologic Event","TTDE",14,19617,19630,1,"Study Completion Date","ADSL","RFENDT",null,"Y"],[91,"CDISCPILOT01","705","01-705-1280",56,"<65",1,"WHITE",1,"F",19740,19929,190,"Xanomeline High Dose","Xanomeline High Dose",81,"Time to First Dermatologic Event","TTDE",94,19740,19833,0,"Dematologic Event Occured","ADAE","ASTDT",1,"Y"],[92,"CDISCPILOT01","705","01-705-1281",73,"65-80",2,"BLACK OR AFRICAN AMERICAN",2,"F",19690,19781,92,"Xanomeline High Dose","Xanomeline High Dose",81,"Time to First Dermatologic Event","TTDE",64,19690,19753,0,"Dematologic Event Occured","ADAE","ASTDT",1,"Y"],[93,"CDISCPILOT01","705","01-705-1282",70,"65-80",2,"BLACK OR AFRICAN AMERICAN",2,"F",19353,19533,181,"Placebo","Placebo",0,"Time to First Dermatologic Event","TTDE",181,19353,19533,1,"Study Completion Date","ADSL","RFENDT",null,"Y"],[94,"CDISCPILOT01","705","01-705-1292",60,"<65",1,"BLACK OR AFRICAN AMERICAN",2,"F",19645,19856,212,"Xanomeline Low Dose","Xanomeline Low Dose",54,"Time to First Dermatologic Event","TTDE",15,19645,19659,0,"Dematologic Event Occured","ADAE","ASTDT",1,"Y"],[95,"CDISCPILOT01","705","01-705-1303",72,"65-80",2,"WHITE",1,"M",19708,19876,169,"Xanomeline High Dose","Xanomeline High Dose",81,"Time to First Dermatologic Event","TTDE",52,19708,19759,0,"Dematologic Event Occured","ADAE","ASTDT",1,"Y"],[96,"CDISCPILOT01","705","01-705-1310",74,"65-80",2,"WHITE",1,"F",19664,19746,83,"Xanomeline High Dose","Xanomeline High Dose",81,"Time to First Dermatologic Event","TTDE",13,19664,19676,0,"Dematologic Event Occured","ADAE","ASTDT",1,"Y"],[97,"CDISCPILOT01","705","01-705-1349",86,">80",3,"WHITE",1,"F",19427,19609,183,"Placebo","Placebo",0,"Time to First Dermatologic Event","TTDE",183,19427,19609,1,"Study Completion Date","ADSL","RFENDT",null,"Y"],[98,"CDISCPILOT01","705","01-705-1377",63,"<65",1,"BLACK OR AFRICAN AMERICAN",2,"F",19727,19789,63,"Xanomeline High Dose","Xanomeline High Dose",81,"Time to First Dermatologic Event","TTDE",63,19727,19789,1,"Study Completion Date","ADSL","RFENDT",null,"Y"],[99,"CDISCPILOT01","705","01-705-1382",82,">80",3,"WHITE",1,"M",19491,19491,1,"Xanomeline High Dose","Xanomeline High Dose",81,"Time to First Dermatologic Event","TTDE",1,19491,19491,1,"Study Completion Date","ADSL","RFENDT",null,"Y"],[100,"CDISCPILOT01","705","01-705-1393",84,">80",3,"WHITE",1,"F",19243,19390,148,"Xanomeline Low Dose","Xanomeline Low Dose",54,"Time to First Dermatologic Event","TTDE",167,19243,19409,1,"Study Completion Date","ADSL","RFENDT",null,"Y"],[101,"CDISCPILOT01","705","01-705-1431",68,"65-80",2,"WHITE",1,"F",19532,19711,180,"Xanomeline Low Dose","Xanomeline Low Dose",54,"Time to First Dermatologic Event","TTDE",180,19532,19711,1,"Study Completion Date","ADSL","RFENDT",null,"Y"],[102,"CDISCPILOT01","706","01-706-1041",64,"<65",1,"BLACK OR AFRICAN AMERICAN",2,"F",19723,19932,210,"Placebo","Placebo",0,"Time to First Dermatologic Event","TTDE",64,19723,19786,0,"Dematologic Event Occured","ADAE","ASTDT",6,"Y"],[103,"CDISCPILOT01","706","01-706-1049",60,"<65",1,"WHITE",1,"F",19492,19527,36,"Xanomeline High Dose","Xanomeline High Dose",81,"Time to First Dermatologic Event","TTDE",43,19492,19534,1,"Study Completion Date","ADSL","RFENDT",null,"Y"],[104,"CDISCPILOT01","706","01-706-1384",74,"65-80",2,"WHITE",1,"F",19251,19260,10,"Xanomeline Low Dose","Xanomeline Low Dose",54,"Time to First Dermatologic Event","TTDE",1,19251,19251,0,"Dematologic Event Occured","ADAE","ASTDT",1,"Y"],[105,"CDISCPILOT01","707","01-707-1037",72,"65-80",2,"WHITE",1,"F",19712,19716,5,"Xanomeline Low Dose","Xanomeline Low Dose",54,"Time to First Dermatologic Event","TTDE",20,19712,19731,1,"Study Completion Date","ADSL","RFENDT",null,"Y"],[106,"CDISCPILOT01","707","01-707-1206",65,"65-80",2,"WHITE",1,"M",19659,19839,181,"Placebo","Placebo",0,"Time to First Dermatologic Event","TTDE",182,19659,19840,1,"Study Completion Date","ADSL","RFENDT",null,"Y"],[107,"CDISCPILOT01","708","01-708-1019",68,"65-80",2,"WHITE",1,"M",19712,19724,13,"Xanomeline Low Dose","Xanomeline Low Dose",54,"Time to First Dermatologic Event","TTDE",35,19712,19746,1,"Study Completion Date","ADSL","RFENDT",null,"Y"],[108,"CDISCPILOT01","708","01-708-1032",62,"<65",1,"WHITE",1,"M",19398,19418,21,"Xanomeline Low Dose","Xanomeline Low Dose",54,"Time to First Dermatologic Event","TTDE",18,19398,19415,0,"Dematologic Event Occured","ADAE","ASTDT",1,"Y"],[109,"CDISCPILOT01","708","01-708-1084",73,"65-80",2,"WHITE",1,"F",19487,19673,187,"Xanomeline Low Dose","Xanomeline Low Dose",54,"Time to First Dermatologic Event","TTDE",187,19487,19673,1,"Study Completion Date","ADSL","RFENDT",null,"Y"],[110,"CDISCPILOT01","708","01-708-1087",74,"65-80",2,"WHITE",1,"F",19288,19476,189,"Placebo","Placebo",0,"Time to First Dermatologic Event","TTDE",189,19288,19476,1,"Study Completion Date","ADSL","RFENDT",null,"Y"],[111,"CDISCPILOT01","708","01-708-1158",81,">80",3,"WHITE",1,"F",19762,19803,42,"Placebo","Placebo",0,"Time to First Dermatologic Event","TTDE",43,19762,19804,0,"Dematologic Event Occured","ADAE","ASTDT",2,"Y"],[112,"CDISCPILOT01","708","01-708-1171",77,"65-80",2,"WHITE",1,"F",19333,19513,181,"Placebo","Placebo",0,"Time to First Dermatologic Event","TTDE",181,19333,19513,1,"Study Completion Date","ADSL","RFENDT",null,"Y"],[113,"CDISCPILOT01","708","01-708-1178",77,"65-80",2,"BLACK OR AFRICAN AMERICAN",2,"F",19721,19819,99,"Xanomeline High Dose","Xanomeline High Dose",81,"Time to First Dermatologic Event","TTDE",71,19721,19791,0,"Dematologic Event Occured","ADAE","ASTDT",3,"Y"],[114,"CDISCPILOT01","708","01-708-1213",76,"65-80",2,"WHITE",1,"F",19398,19411,14,"Xanomeline High Dose","Xanomeline High Dose",81,"Time to First Dermatologic Event","TTDE",18,19398,19415,1,"Study Completion Date","ADSL","RFENDT",null,"Y"],[115,"CDISCPILOT01","708","01-708-1216",78,"65-80",2,"WHITE",1,"M",19290,19326,37,"Xanomeline High Dose","Xanomeline High Dose",81,"Time to First Dermatologic Event","TTDE",14,19290,19303,0,"Dematologic Event Occured","ADAE","ASTDT",1,"Y"],[116,"CDISCPILOT01","708","01-708-1236",86,">80",3,"WHITE",1,"F",19622,19622,1,"Xanomeline High Dose","Xanomeline High Dose",81,"Time to First Dermatologic Event","TTDE",6,19622,19627,1,"Study Completion Date","ADSL","RFENDT",null,"Y"],[117,"CDISCPILOT01","708","01-708-1253",61,"<65",1,"WHITE",1,"M",19485,19667,183,"Placebo","Placebo",0,"Time to First Dermatologic Event","TTDE",183,19485,19667,1,"Study Completion Date","ADSL","RFENDT",null,"Y"],[118,"CDISCPILOT01","708","01-708-1272",82,">80",3,"WHITE",1,"M",19395,19439,45,"Xanomeline Low Dose","Xanomeline Low Dose",54,"Time to First Dermatologic Event","TTDE",22,19395,19416,0,"Dematologic Event Occured","ADAE","ASTDT",4,"Y"],[119,"CDISCPILOT01","708","01-708-1286",80,"65-80",2,"BLACK OR AFRICAN AMERICAN",2,"F",19611,19790,180,"Placebo","Placebo",0,"Time to First Dermatologic Event","TTDE",3,19611,19613,0,"Dematologic Event Occured","ADAE","ASTDT",1,"Y"],[120,"CDISCPILOT01","708","01-708-1296",57,"<65",1,"BLACK OR AFRICAN AMERICAN",2,"M",19523,19704,182,"Placebo","Placebo",0,"Time to First Dermatologic Event","TTDE",83,19523,19605,0,"Dematologic Event Occured","ADAE","ASTDT",3,"Y"],[121,"CDISCPILOT01","708","01-708-1297",61,"<65",1,"WHITE",1,"M",19383,19481,99,"Xanomeline Low Dose","Xanomeline Low Dose",54,"Time to First Dermatologic Event","TTDE",68,19383,19450,0,"Dematologic Event Occured","ADAE","ASTDT",1,"Y"],[122,"CDISCPILOT01","708","01-708-1316",74,"65-80",2,"WHITE",1,"F",19593,19783,191,"Placebo","Placebo",0,"Time to First Dermatologic Event","TTDE",177,19593,19769,0,"Dematologic Event Occured","ADAE","ASTDT",2,"Y"],[123,"CDISCPILOT01","708","01-708-1336",73,"65-80",2,"WHITE",1,"M",19334,19514,181,"Xanomeline High Dose","Xanomeline High Dose",81,"Time to First Dermatologic Event","TTDE",37,19334,19370,0,"Dematologic Event Occured","ADAE","ASTDT",2,"Y"],[124,"CDISCPILOT01","708","01-708-1342",59,"<65",1,"WHITE",1,"F",19356,19537,182,"Placebo","Placebo",0,"Time to First Dermatologic Event","TTDE",182,19356,19537,1,"Study Completion Date","ADSL","RFENDT",null,"Y"],[125,"CDISCPILOT01","708","01-708-1347",61,"<65",1,"WHITE",1,"F",19468,19527,60,"Xanomeline High Dose","Xanomeline High Dose",81,"Time to First Dermatologic Event","TTDE",55,19468,19522,0,"Dematologic Event Occured","ADAE","ASTDT",1,"Y"],[126,"CDISCPILOT01","708","01-708-1348",79,"65-80",2,"WHITE",1,"F",19575,19767,193,"Xanomeline Low Dose","Xanomeline Low Dose",54,"Time to First Dermatologic Event","TTDE",119,19575,19693,0,"Dematologic Event Occured","ADAE","ASTDT",3,"Y"],[127,"CDISCPILOT01","708","01-708-1353",87,">80",3,"BLACK OR AFRICAN AMERICAN",2,"F",19543,19598,56,"Xanomeline Low Dose","Xanomeline Low Dose",54,"Time to First Dermatologic Event","TTDE",69,19543,19611,1,"Study Completion Date","ADSL","RFENDT",null,"Y"],[128,"CDISCPILOT01","708","01-708-1372",84,">80",3,"WHITE",1,"M",19460,19467,8,"Xanomeline High Dose","Xanomeline High Dose",81,"Time to First Dermatologic Event","TTDE",29,19460,19488,1,"Study Completion Date","ADSL","RFENDT",null,"Y"],[129,"CDISCPILOT01","708","01-708-1378",67,"65-80",2,"BLACK OR AFRICAN AMERICAN",2,"M",19604,19751,148,"Placebo","Placebo",0,"Time to First Dermatologic Event","TTDE",148,19604,19751,1,"Study Completion Date","ADSL","RFENDT",null,"Y"],[130,"CDISCPILOT01","708","01-708-1406",71,"65-80",2,"WHITE",1,"F",19718,19906,189,"Xanomeline High Dose","Xanomeline High Dose",81,"Time to First Dermatologic Event","TTDE",189,19718,19906,1,"Study Completion Date","ADSL","RFENDT",null,"Y"],[131,"CDISCPILOT01","708","01-708-1428",84,">80",3,"WHITE",1,"F",19671,19706,36,"Xanomeline Low Dose","Xanomeline Low Dose",54,"Time to First Dermatologic Event","TTDE",32,19671,19702,0,"Dematologic Event Occured","ADAE","ASTDT",2,"Y"],[132,"CDISCPILOT01","709","01-709-1001",76,"65-80",2,"WHITE",1,"F",19639,19821,183,"Placebo","Placebo",0,"Time to First Dermatologic Event","TTDE",183,19639,19821,1,"Study Completion Date","ADSL","RFENDT",null,"Y"],[133,"CDISCPILOT01","709","01-709-1007",54,"<65",1,"WHITE",1,"F",19205,19233,29,"Xanomeline Low Dose","Xanomeline Low Dose",54,"Time to First Dermatologic Event","TTDE",17,19205,19221,0,"Dematologic Event Occured","ADAE","ASTDT",1,"Y"],[134,"CDISCPILOT01","709","01-709-1020",72,"65-80",2,"WHITE",1,"F",19328,19510,183,"Xanomeline Low Dose","Xanomeline Low Dose",54,"Time to First Dermatologic Event","TTDE",27,19328,19354,0,"Dematologic Event Occured","ADAE","ASTDT",1,"Y"],[135,"CDISCPILOT01","709","01-709-1029",82,">80",3,"WHITE",1,"M",19352,19535,184,"Xanomeline High Dose","Xanomeline High Dose",81,"Time to First Dermatologic Event","TTDE",24,19352,19375,0,"Dematologic Event Occured","ADAE","ASTDT",2,"Y"],[136,"CDISCPILOT01","709","01-709-1081",86,">80",3,"WHITE",1,"F",19741,19840,100,"Xanomeline Low Dose","Xanomeline Low Dose",54,"Time to First Dermatologic Event","TTDE",80,19741,19820,0,"Dematologic Event Occured","ADAE","ASTDT",1,"Y"],[137,"CDISCPILOT01","709","01-709-1088",69,"65-80",2,"WHITE",1,"M",19825,20005,181,"Placebo","Placebo",0,"Time to First Dermatologic Event","TTDE",27,19825,19851,0,"Dematologic Event Occured","ADAE","ASTDT",1,"Y"],[138,"CDISCPILOT01","709","01-709-1099",79,"65-80",2,"WHITE",1,"F",19656,19838,183,"Xanomeline High Dose","Xanomeline High Dose",81,"Time to First Dermatologic Event","TTDE",19,19656,19674,0,"Dematologic Event Occured","ADAE","ASTDT",2,"Y"],[139,"CDISCPILOT01","709","01-709-1102",71,"65-80",2,"WHITE",1,"F",19373,19444,72,"Xanomeline Low Dose","Xanomeline Low Dose",54,"Time to First Dermatologic Event","TTDE",28,19373,19400,0,"Dematologic Event Occured","ADAE","ASTDT",1,"Y"],[140,"CDISCPILOT01","709","01-709-1168",72,"65-80",2,"WHITE",1,"F",19572,19627,56,"Xanomeline High Dose","Xanomeline High Dose",81,"Time to First Dermatologic Event","TTDE",16,19572,19587,0,"Dematologic Event Occured","ADAE","ASTDT",1,"Y"],[141,"CDISCPILOT01","709","01-709-1217",77,"65-80",2,"WHITE",1,"M",19421,19520,100,"Xanomeline Low Dose","Xanomeline Low Dose",54,"Time to First Dermatologic Event","TTDE",23,19421,19443,0,"Dematologic Event Occured","ADAE","ASTDT",3,"Y"],[142,"CDISCPILOT01","709","01-709-1238",69,"65-80",2,"WHITE",1,"M",19493,19576,84,"Xanomeline High Dose","Xanomeline High Dose",81,"Time to First Dermatologic Event","TTDE",16,19493,19508,0,"Dematologic Event Occured","ADAE","ASTDT",2,"Y"],[143,"CDISCPILOT01","709","01-709-1259",82,">80",3,"WHITE",1,"M",19384,19522,139,"Placebo","Placebo",0,"Time to First Dermatologic Event","TTDE",139,19384,19522,1,"Study Completion Date","ADSL","RFENDT",null,"Y"],[144,"CDISCPILOT01","709","01-709-1285",87,">80",3,"WHITE",1,"M",19441,19501,61,"Xanomeline Low Dose","Xanomeline Low Dose",54,"Time to First Dermatologic Event","TTDE",27,19441,19467,0,"Dematologic Event Occured","ADAE","ASTDT",2,"Y"],[145,"CDISCPILOT01","709","01-709-1301",62,"<65",1,"WHITE",1,"F",19558,19740,183,"Placebo","Placebo",0,"Time to First Dermatologic Event","TTDE",183,19558,19740,1,"Study Completion Date","ADSL","RFENDT",null,"Y"],[146,"CDISCPILOT01","709","01-709-1306",60,"<65",1,"WHITE",1,"F",19757,19890,134,"Placebo","Placebo",0,"Time to First Dermatologic Event","TTDE",77,19757,19833,0,"Dematologic Event Occured","ADAE","ASTDT",1,"Y"],[147,"CDISCPILOT01","709","01-709-1309",65,"65-80",2,"WHITE",1,"M",19528,19711,184,"Xanomeline High Dose","Xanomeline High Dose",81,"Time to First Dermatologic Event","TTDE",2,19528,19529,0,"Dematologic Event Occured","ADAE","ASTDT",7,"Y"],[148,"CDISCPILOT01","709","01-709-1312",68,"65-80",2,"WHITE",1,"F",19833,20015,183,"Placebo","Placebo",0,"Time to First Dermatologic Event","TTDE",28,19833,19860,0,"Dematologic Event Occured","ADAE","ASTDT",1,"Y"],[149,"CDISCPILOT01","709","01-709-1326",75,"65-80",2,"WHITE",1,"F",19453,19633,181,"Xanomeline Low Dose","Xanomeline Low Dose",54,"Time to First Dermatologic Event","TTDE",27,19453,19479,0,"Dematologic Event Occured","ADAE","ASTDT",1,"Y"],[150,"CDISCPILOT01","709","01-709-1329",70,"65-80",2,"WHITE",1,"M",19585,19595,11,"Xanomeline High Dose","Xanomeline High Dose",81,"Time to First Dermatologic Event","TTDE",15,19585,19599,1,"Study Completion Date","ADSL","RFENDT",null,"Y"],[151,"CDISCPILOT01","709","01-709-1339",81,">80",3,"WHITE",1,"M",19350,19533,184,"Placebo","Placebo",0,"Time to First Dermatologic Event","TTDE",184,19350,19533,1,"Study Completion Date","ADSL","RFENDT",null,"Y"],[152,"CDISCPILOT01","709","01-709-1424",77,"65-80",2,"WHITE",1,"M",19420,19424,5,"Xanomeline High Dose","Xanomeline High Dose",81,"Time to First Dermatologic Event","TTDE",6,19420,19425,1,"Study Completion Date","ADSL","RFENDT",null,"Y"],[153,"CDISCPILOT01","710","01-710-1002",88,">80",3,"WHITE",1,"M",19737,19741,5,"Xanomeline Low Dose","Xanomeline Low Dose",54,"Time to First Dermatologic Event","TTDE",5,19737,19741,1,"Study Completion Date","ADSL","RFENDT",null,"Y"],[154,"CDISCPILOT01","710","01-710-1006",77,"65-80",2,"WHITE",1,"M",19399,19579,181,"Xanomeline High Dose","Xanomeline High Dose",81,"Time to First Dermatologic Event","TTDE",20,19399,19418,0,"Dematologic Event Occured","ADAE","ASTDT",3,"Y"],[155,"CDISCPILOT01","710","01-710-1021",79,"65-80",2,"BLACK OR AFRICAN AMERICAN",2,"M",19628,19660,33,"Xanomeline High Dose","Xanomeline High Dose",81,"Time to First Dermatologic Event","TTDE",25,19628,19652,0,"Dematologic Event Occured","ADAE","ASTDT",2,"Y"],[156,"CDISCPILOT01","710","01-710-1027",83,">80",3,"WHITE",1,"M",19782,19964,183,"Placebo","Placebo",0,"Time to First Dermatologic Event","TTDE",183,19782,19964,1,"Study Completion Date","ADSL","RFENDT",null,"Y"],[157,"CDISCPILOT01","710","01-710-1045",83,">80",3,"WHITE",1,"F",19512,19583,72,"Xanomeline Low Dose","Xanomeline Low Dose",54,"Time to First Dermatologic Event","TTDE",30,19512,19541,0,"Dematologic Event Occured","ADAE","ASTDT",3,"Y"],[158,"CDISCPILOT01","710","01-710-1053",84,">80",3,"WHITE",1,"F",19353,19399,47,"Xanomeline Low Dose","Xanomeline Low Dose",54,"Time to First Dermatologic Event","TTDE",34,19353,19386,0,"Dematologic Event Occured","ADAE","ASTDT",1,"Y"],[159,"CDISCPILOT01","710","01-710-1060",82,">80",3,"WHITE",1,"M",19359,19544,186,"Placebo","Placebo",0,"Time to First Dermatologic Event","TTDE",21,19359,19379,0,"Dematologic Event Occured","ADAE","ASTDT",4,"Y"],[160,"CDISCPILOT01","710","01-710-1070",85,">80",3,"WHITE",1,"F",19244,19380,137,"Xanomeline High Dose","Xanomeline High Dose",81,"Time to First Dermatologic Event","TTDE",96,19244,19339,0,"Dematologic Event Occured","ADAE","ASTDT",2,"Y"],[161,"CDISCPILOT01","710","01-710-1077",76,"65-80",2,"WHITE",1,"F",19679,19861,183,"Placebo","Placebo",0,"Time to First Dermatologic Event","TTDE",26,19679,19704,0,"Dematologic Event Occured","ADAE","ASTDT",1,"Y"],[162,"CDISCPILOT01","710","01-710-1078",81,">80",3,"WHITE",1,"F",19618,19805,188,"Placebo","Placebo",0,"Time to First Dermatologic Event","TTDE",188,19618,19805,1,"Study Completion Date","ADSL","RFENDT",null,"Y"],[163,"CDISCPILOT01","710","01-710-1083",89,">80",3,"WHITE",1,"F",19561,19571,11,"Placebo","Placebo",0,"Time to First Dermatologic Event","TTDE",13,19561,19573,1,"Study Completion Date","ADSL","RFENDT",null,"Y"],[164,"CDISCPILOT01","710","01-710-1137",79,"65-80",2,"BLACK OR AFRICAN AMERICAN",2,"F",19642,19675,34,"Xanomeline High Dose","Xanomeline High Dose",81,"Time to First Dermatologic Event","TTDE",3,19642,19644,0,"Dematologic Event Occured","ADAE","ASTDT",1,"Y"],[165,"CDISCPILOT01","710","01-710-1142",76,"65-80",2,"WHITE",1,"F",19268,19286,19,"Xanomeline High Dose","Xanomeline High Dose",81,"Time to First Dermatologic Event","TTDE",22,19268,19289,1,"Study Completion Date","ADSL","RFENDT",null,"Y"],[166,"CDISCPILOT01","710","01-710-1154",84,">80",3,"WHITE",1,"M",19811,19840,30,"Xanomeline Low Dose","Xanomeline Low Dose",54,"Time to First Dermatologic Event","TTDE",21,19811,19831,0,"Dematologic Event Occured","ADAE","ASTDT",1,"Y"],[167,"CDISCPILOT01","710","01-710-1166",81,">80",3,"WHITE",1,"F",19327,19436,110,"Xanomeline Low Dose","Xanomeline Low Dose",54,"Time to First Dermatologic Event","TTDE",121,19327,19447,1,"Study Completion Date","ADSL","RFENDT",null,"Y"],[168,"CDISCPILOT01","710","01-710-1183",80,"65-80",2,"WHITE",1,"F",19678,19860,183,"Placebo","Placebo",0,"Time to First Dermatologic Event","TTDE",183,19678,19860,1,"Study Completion Date","ADSL","RFENDT",null,"Y"],[169,"CDISCPILOT01","710","01-710-1187",78,"65-80",2,"WHITE",1,"F",19307,19490,184,"Xanomeline High Dose","Xanomeline High Dose",81,"Time to First Dermatologic Event","TTDE",44,19307,19350,0,"Dematologic Event Occured","ADAE","ASTDT",1,"Y"],[170,"CDISCPILOT01","710","01-710-1235",56,"<65",1,"WHITE",1,"F",19262,19444,183,"Xanomeline Low Dose","Xanomeline Low Dose",54,"Time to First Dermatologic Event","TTDE",126,19262,19387,0,"Dematologic Event Occured","ADAE","ASTDT",3,"Y"],[171,"CDISCPILOT01","710","01-710-1249",79,"65-80",2,"WHITE",1,"M",19720,19902,183,"Xanomeline High Dose","Xanomeline High Dose",81,"Time to First Dermatologic Event","TTDE",46,19720,19765,0,"Dematologic Event Occured","ADAE","ASTDT",1,"Y"],[172,"CDISCPILOT01","710","01-710-1264",78,"65-80",2,"WHITE",1,"M",19522,19642,121,"Placebo","Placebo",0,"Time to First Dermatologic Event","TTDE",70,19522,19591,0,"Dematologic Event Occured","ADAE","ASTDT",2,"Y"],[173,"CDISCPILOT01","710","01-710-1270",83,">80",3,"WHITE",1,"F",19766,19783,18,"Xanomeline Low Dose","Xanomeline Low Dose",54,"Time to First Dermatologic Event","TTDE",12,19766,19777,0,"Dematologic Event Occured","ADAE","ASTDT",1,"Y"],[174,"CDISCPILOT01","710","01-710-1271",86,">80",3,"WHITE",1,"F",19263,19318,56,"Placebo","Placebo",0,"Time to First Dermatologic Event","TTDE",67,19263,19329,1,"Study Completion Date","ADSL","RFENDT",null,"Y"],[175,"CDISCPILOT01","710","01-710-1278",81,">80",3,"WHITE",1,"M",19351,19415,65,"Xanomeline High Dose","Xanomeline High Dose",81,"Time to First Dermatologic Event","TTDE",46,19351,19396,0,"Dematologic Event Occured","ADAE","ASTDT",2,"Y"],[176,"CDISCPILOT01","710","01-710-1300",78,"65-80",2,"WHITE",1,"F",19342,19404,63,"Xanomeline Low Dose","Xanomeline Low Dose",54,"Time to First Dermatologic Event","TTDE",48,19342,19389,0,"Dematologic Event Occured","ADAE","ASTDT",1,"Y"],[177,"CDISCPILOT01","710","01-710-1314",78,"65-80",2,"WHITE",1,"F",19472,19501,30,"Placebo","Placebo",0,"Time to First Dermatologic Event","TTDE",32,19472,19503,1,"Study Completion Date","ADSL","RFENDT",null,"Y"],[178,"CDISCPILOT01","710","01-710-1315",83,">80",3,"WHITE",1,"F",19416,19545,130,"Placebo","Placebo",0,"Time to First Dermatologic Event","TTDE",77,19416,19492,0,"Dematologic Event Occured","ADAE","ASTDT",2,"Y"],[179,"CDISCPILOT01","710","01-710-1354",73,"65-80",2,"WHITE",1,"M",19308,19479,172,"Xanomeline High Dose","Xanomeline High Dose",81,"Time to First Dermatologic Event","TTDE",50,19308,19357,0,"Dematologic Event Occured","ADAE","ASTDT",1,"Y"],[180,"CDISCPILOT01","710","01-710-1358",82,">80",3,"WHITE",1,"M",19253,19398,146,"Xanomeline Low Dose","Xanomeline Low Dose",54,"Time to First Dermatologic Event","TTDE",97,19253,19349,0,"Dematologic Event Occured","ADAE","ASTDT",1,"Y"],[181,"CDISCPILOT01","710","01-710-1368",88,">80",3,"WHITE",1,"F",19654,19837,184,"Placebo","Placebo",0,"Time to First Dermatologic Event","TTDE",184,19654,19837,1,"Study Completion Date","ADSL","RFENDT",null,"Y"],[182,"CDISCPILOT01","710","01-710-1385",77,"65-80",2,"WHITE",1,"M",19295,19407,113,"Xanomeline Low Dose","Xanomeline Low Dose",54,"Time to First Dermatologic Event","TTDE",51,19295,19345,0,"Dematologic Event Occured","ADAE","ASTDT",4,"Y"],[183,"CDISCPILOT01","710","01-710-1408",80,"65-80",2,"WHITE",1,"M",19363,19551,189,"Xanomeline High Dose","Xanomeline High Dose",81,"Time to First Dermatologic Event","TTDE",51,19363,19413,0,"Dematologic Event Occured","ADAE","ASTDT",3,"Y"],[184,"CDISCPILOT01","711","01-711-1012",67,"65-80",2,"WHITE",1,"F",19451,19477,27,"Xanomeline High Dose","Xanomeline High Dose",81,"Time to First Dermatologic Event","TTDE",14,19451,19464,0,"Dematologic Event Occured","ADAE","ASTDT",1,"Y"],[185,"CDISCPILOT01","711","01-711-1036",70,"65-80",2,"BLACK OR AFRICAN AMERICAN",2,"M",19203,19399,197,"Placebo","Placebo",0,"Time to First Dermatologic Event","TTDE",197,19203,19399,1,"Study Completion Date","ADSL","RFENDT",null,"Y"],[186,"CDISCPILOT01","711","01-711-1143",76,"65-80",2,"WHITE",1,"F",19451,19508,58,"Xanomeline Low Dose","Xanomeline Low Dose",54,"Time to First Dermatologic Event","TTDE",46,19451,19496,0,"Dematologic Event Occured","ADAE","ASTDT",8,"Y"],[187,"CDISCPILOT01","711","01-711-1433",84,">80",3,"WHITE",1,"F",19385,19394,10,"Xanomeline High Dose","Xanomeline High Dose",81,"Time to First Dermatologic Event","TTDE",11,19385,19395,1,"Study Completion Date","ADSL","RFENDT",null,"Y"],[188,"CDISCPILOT01","713","01-713-1043",78,"65-80",2,"WHITE",1,"F",19616,19806,191,"Xanomeline Low Dose","Xanomeline Low Dose",54,"Time to First Dermatologic Event","TTDE",12,19616,19627,0,"Dematologic Event Occured","ADAE","ASTDT",1,"Y"],[189,"CDISCPILOT01","713","01-713-1073",74,"65-80",2,"BLACK OR AFRICAN AMERICAN",2,"F",19812,20001,190,"Xanomeline Low Dose","Xanomeline Low Dose",54,"Time to First Dermatologic Event","TTDE",107,19812,19918,0,"Dematologic Event Occured","ADAE","ASTDT",1,"Y"],[190,"CDISCPILOT01","713","01-713-1106",74,"65-80",2,"WHITE",1,"M",19297,19484,188,"Xanomeline High Dose","Xanomeline High Dose",81,"Time to First Dermatologic Event","TTDE",188,19297,19484,1,"Study Completion Date","ADSL","RFENDT",null,"Y"],[191,"CDISCPILOT01","713","01-713-1141",79,"65-80",2,"WHITE",1,"M",19509,19540,32,"Xanomeline High Dose","Xanomeline High Dose",81,"Time to First Dermatologic Event","TTDE",22,19509,19530,0,"Dematologic Event Occured","ADAE","ASTDT",1,"Y"],[192,"CDISCPILOT01","713","01-713-1179",64,"<65",1,"WHITE",1,"F",19579,19759,181,"Placebo","Placebo",0,"Time to First Dermatologic Event","TTDE",181,19579,19759,1,"Study Completion Date","ADSL","RFENDT",null,"Y"],[193,"CDISCPILOT01","713","01-713-1209",77,"65-80",2,"WHITE",1,"F",19505,19684,180,"Xanomeline High Dose","Xanomeline High Dose",81,"Time to First Dermatologic Event","TTDE",7,19505,19511,0,"Dematologic Event Occured","ADAE","ASTDT",2,"Y"],[194,"CDISCPILOT01","713","01-713-1256",71,"65-80",2,"WHITE",1,"M",19255,19442,188,"Placebo","Placebo",0,"Time to First Dermatologic Event","TTDE",42,19255,19296,0,"Dematologic Event Occured","ADAE","ASTDT",1,"Y"],[195,"CDISCPILOT01","713","01-713-1269",73,"65-80",2,"WHITE",1,"M",19750,19932,183,"Placebo","Placebo",0,"Time to First Dermatologic Event","TTDE",7,19750,19756,0,"Dematologic Event Occured","ADAE","ASTDT",1,"Y"],[196,"CDISCPILOT01","713","01-713-1448",71,"65-80",2,"WHITE",1,"F",19742,19859,118,"Xanomeline Low Dose","Xanomeline Low Dose",54,"Time to First Dermatologic Event","TTDE",60,19742,19801,0,"Dematologic Event Occured","ADAE","ASTDT",1,"Y"],[197,"CDISCPILOT01","714","01-714-1035",88,">80",3,"WHITE",1,"F",19830,20012,183,"Placebo","Placebo",0,"Time to First Dermatologic Event","TTDE",183,19830,20012,1,"Study Completion Date","ADSL","RFENDT",null,"Y"],[198,"CDISCPILOT01","714","01-714-1068",79,"65-80",2,"WHITE",1,"F",19578,19639,62,"Xanomeline Low Dose","Xanomeline Low Dose",54,"Time to First Dermatologic Event","TTDE",5,19578,19582,0,"Dematologic Event Occured","ADAE","ASTDT",1,"Y"],[199,"CDISCPILOT01","714","01-714-1195",75,"65-80",2,"WHITE",1,"M",19474,19654,181,"Xanomeline Low Dose","Xanomeline Low Dose",54,"Time to First Dermatologic Event","TTDE",18,19474,19491,0,"Dematologic Event Occured","ADAE","ASTDT",3,"Y"],[200,"CDISCPILOT01","714","01-714-1288",77,"65-80",2,"BLACK OR AFRICAN AMERICAN",2,"M",19696,19891,196,"Xanomeline High Dose","Xanomeline High Dose",81,"Time to First Dermatologic Event","TTDE",39,19696,19734,0,"Dematologic Event Occured","ADAE","ASTDT",3,"Y"],[201,"CDISCPILOT01","714","01-714-1375",78,"65-80",2,"WHITE",1,"F",19415,19608,194,"Placebo","Placebo",0,"Time to First Dermatologic Event","TTDE",33,19415,19447,0,"Dematologic Event Occured","ADAE","ASTDT",1,"Y"],[202,"CDISCPILOT01","714","01-714-1425",81,">80",3,"WHITE",1,"M",19585,19589,5,"Xanomeline High Dose","Xanomeline High Dose",81,"Time to First Dermatologic Event","TTDE",8,19585,19592,1,"Study Completion Date","ADSL","RFENDT",null,"Y"],[203,"CDISCPILOT01","715","01-715-1085",77,"65-80",2,"WHITE",1,"F",19405,19588,184,"Xanomeline Low Dose","Xanomeline Low Dose",54,"Time to First Dermatologic Event","TTDE",184,19405,19588,1,"Study Completion Date","ADSL","RFENDT",null,"Y"],[204,"CDISCPILOT01","715","01-715-1107",65,"65-80",2,"WHITE",1,"M",19415,19485,71,"Xanomeline Low Dose","Xanomeline Low Dose",54,"Time to First Dermatologic Event","TTDE",71,19415,19485,0,"Dematologic Event Occured","ADAE","ASTDT",1,"Y"],[205,"CDISCPILOT01","715","01-715-1155",59,"<65",1,"WHITE",1,"F",19705,19748,44,"Placebo","Placebo",0,"Time to First Dermatologic Event","TTDE",135,19705,19839,1,"Study Completion Date","ADSL","RFENDT",null,"Y"],[206,"CDISCPILOT01","715","01-715-1207",78,"65-80",2,"WHITE",1,"F",19315,19505,191,"Placebo","Placebo",0,"Time to First Dermatologic Event","TTDE",196,19315,19510,1,"Study Completion Date","ADSL","RFENDT",null,"Y"],[207,"CDISCPILOT01","715","01-715-1319",65,"65-80",2,"WHITE",1,"M",19406,19422,17,"Xanomeline High Dose","Xanomeline High Dose",81,"Time to First Dermatologic Event","TTDE",30,19406,19435,1,"Study Completion Date","ADSL","RFENDT",null,"Y"],[208,"CDISCPILOT01","715","01-715-1321",75,"65-80",2,"WHITE",1,"F",19765,19834,70,"Xanomeline High Dose","Xanomeline High Dose",81,"Time to First Dermatologic Event","TTDE",70,19765,19834,0,"Dematologic Event Occured","ADAE","ASTDT",3,"Y"],[209,"CDISCPILOT01","715","01-715-1397",76,"65-80",2,"WHITE",1,"F",19451,19633,183,"Placebo","Placebo",0,"Time to First Dermatologic Event","TTDE",184,19451,19634,1,"Study Completion Date","ADSL","RFENDT",null,"Y"],[210,"CDISCPILOT01","715","01-715-1405",69,"65-80",2,"WHITE",1,"M",19545,19546,2,"Xanomeline Low Dose","Xanomeline Low Dose",54,"Time to First Dermatologic Event","TTDE",8,19545,19552,1,"Study Completion Date","ADSL","RFENDT",null,"Y"],[211,"CDISCPILOT01","716","01-716-1024",87,">80",3,"WHITE",1,"F",19183,19378,196,"Placebo","Placebo",0,"Time to First Dermatologic Event","TTDE",196,19183,19378,1,"Study Completion Date","ADSL","RFENDT",null,"Y"],[212,"CDISCPILOT01","716","01-716-1026",73,"65-80",2,"WHITE",1,"F",19815,20012,198,"Placebo","Placebo",0,"Time to First Dermatologic Event","TTDE",16,19815,19830,0,"Dematologic Event Occured","ADAE","ASTDT",2,"Y"],[213,"CDISCPILOT01","716","01-716-1030",83,">80",3,"WHITE",1,"F",19720,19725,6,"Xanomeline High Dose","Xanomeline High Dose",81,"Time to First Dermatologic Event","TTDE",14,19720,19733,1,"Study Completion Date","ADSL","RFENDT",null,"Y"],[214,"CDISCPILOT01","716","01-716-1044",74,"65-80",2,"WHITE",1,"M",19475,19665,191,"Placebo","Placebo",0,"Time to First Dermatologic Event","TTDE",191,19475,19665,1,"Study Completion Date","ADSL","RFENDT",null,"Y"],[215,"CDISCPILOT01","716","01-716-1063",80,"65-80",2,"WHITE",1,"M",19487,19595,109,"Xanomeline Low Dose","Xanomeline Low Dose",54,"Time to First Dermatologic Event","TTDE",57,19487,19543,0,"Dematologic Event Occured","ADAE","ASTDT",3,"Y"],[216,"CDISCPILOT01","716","01-716-1071",78,"65-80",2,"WHITE",1,"F",19517,19571,55,"Xanomeline High Dose","Xanomeline High Dose",81,"Time to First Dermatologic Event","TTDE",55,19517,19571,1,"Study Completion Date","ADSL","RFENDT",null,"Y"],[217,"CDISCPILOT01","716","01-716-1094",82,">80",3,"WHITE",1,"M",19346,19382,37,"Xanomeline Low Dose","Xanomeline Low Dose",54,"Time to First Dermatologic Event","TTDE",39,19346,19384,1,"Study Completion Date","ADSL","RFENDT",null,"Y"],[218,"CDISCPILOT01","716","01-716-1103",79,"65-80",2,"WHITE",1,"M",19802,19986,185,"Xanomeline Low Dose","Xanomeline Low Dose",54,"Time to First Dermatologic Event","TTDE",112,19802,19913,0,"Dematologic Event Occured","ADAE","ASTDT",1,"Y"],[219,"CDISCPILOT01","716","01-716-1108",86,">80",3,"WHITE",1,"F",19401,19580,180,"Placebo","Placebo",0,"Time to First Dermatologic Event","TTDE",79,19401,19479,0,"Dematologic Event Occured","ADAE","ASTDT",2,"Y"],[220,"CDISCPILOT01","716","01-716-1151",83,">80",3,"WHITE",1,"F",19390,19489,100,"Xanomeline Low Dose","Xanomeline Low Dose",54,"Time to First Dermatologic Event","TTDE",43,19390,19432,0,"Dematologic Event Occured","ADAE","ASTDT",2,"Y"],[221,"CDISCPILOT01","716","01-716-1157",85,">80",3,"WHITE",1,"M",19633,19817,185,"Xanomeline Low Dose","Xanomeline Low Dose",54,"Time to First Dermatologic Event","TTDE",24,19633,19656,0,"Dematologic Event Occured","ADAE","ASTDT",2,"Y"],[222,"CDISCPILOT01","716","01-716-1160",83,">80",3,"WHITE",1,"F",19453,19642,190,"Placebo","Placebo",0,"Time to First Dermatologic Event","TTDE",35,19453,19487,0,"Dematologic Event Occured","ADAE","ASTDT",1,"Y"],[223,"CDISCPILOT01","716","01-716-1167",68,"65-80",2,"WHITE",1,"M",19274,19460,187,"Xanomeline Low Dose","Xanomeline Low Dose",54,"Time to First Dermatologic Event","TTDE",41,19274,19314,0,"Dematologic Event Occured","ADAE","ASTDT",1,"Y"],[224,"CDISCPILOT01","716","01-716-1177",72,"65-80",2,"WHITE",1,"M",19968,20152,185,"Placebo","Placebo",0,"Time to First Dermatologic Event","TTDE",185,19968,20152,1,"Study Completion Date","ADSL","RFENDT",null,"Y"],[225,"CDISCPILOT01","716","01-716-1189",81,">80",3,"WHITE",1,"M",19275,19416,142,"Xanomeline High Dose","Xanomeline High Dose",81,"Time to First Dermatologic Event","TTDE",89,19275,19363,0,"Dematologic Event Occured","ADAE","ASTDT",3,"Y"],[226,"CDISCPILOT01","716","01-716-1229",73,"65-80",2,"WHITE",1,"F",19409,19448,40,"Xanomeline High Dose","Xanomeline High Dose",81,"Time to First Dermatologic Event","TTDE",1,19409,19409,0,"Dematologic Event Occured","ADAE","ASTDT",1,"Y"],[227,"CDISCPILOT01","716","01-716-1298",76,"65-80",2,"WHITE",1,"F",19456,19537,82,"Xanomeline Low Dose","Xanomeline Low Dose",54,"Time to First Dermatologic Event","TTDE",15,19456,19470,0,"Dematologic Event Occured","ADAE","ASTDT",1,"Y"],[228,"CDISCPILOT01","716","01-716-1308",76,"65-80",2,"WHITE",1,"F",19598,19638,41,"Placebo","Placebo",0,"Time to First Dermatologic Event","TTDE",24,19598,19621,0,"Dematologic Event Occured","ADAE","ASTDT",1,"Y"],[229,"CDISCPILOT01","716","01-716-1311",78,"65-80",2,"WHITE",1,"M",19857,19987,131,"Xanomeline Low Dose","Xanomeline Low Dose",54,"Time to First Dermatologic Event","TTDE",15,19857,19871,0,"Dematologic Event Occured","ADAE","ASTDT",1,"Y"],[230,"CDISCPILOT01","716","01-716-1364",84,">80",3,"WHITE",1,"F",19543,19732,190,"Xanomeline High Dose","Xanomeline High Dose",81,"Time to First Dermatologic Event","TTDE",46,19543,19588,0,"Dematologic Event Occured","ADAE","ASTDT",1,"Y"],[231,"CDISCPILOT01","716","01-716-1373",74,"65-80",2,"WHITE",1,"M",19341,19416,76,"Xanomeline High Dose","Xanomeline High Dose",81,"Time to First Dermatologic Event","TTDE",2,19341,19342,0,"Dematologic Event Occured","ADAE","ASTDT",2,"Y"],[232,"CDISCPILOT01","716","01-716-1418",80,"65-80",2,"WHITE",1,"F",19483,19682,200,"Xanomeline High Dose","Xanomeline High Dose",81,"Time to First Dermatologic Event","TTDE",1,19483,19483,0,"Dematologic Event Occured","ADAE","ASTDT",1,"Y"],[233,"CDISCPILOT01","716","01-716-1441",85,">80",3,"WHITE",1,"M",19745,19926,182,"Placebo","Placebo",0,"Time to First Dermatologic Event","TTDE",110,19745,19854,0,"Dematologic Event Occured","ADAE","ASTDT",1,"Y"],[234,"CDISCPILOT01","716","01-716-1447",72,"65-80",2,"WHITE",1,"F",19708,19891,184,"Xanomeline High Dose","Xanomeline High Dose",81,"Time to First Dermatologic Event","TTDE",30,19708,19737,0,"Dematologic Event Occured","ADAE","ASTDT",2,"Y"],[235,"CDISCPILOT01","717","01-717-1004",80,"65-80",2,"WHITE",1,"F",19737,19920,184,"Xanomeline Low Dose","Xanomeline Low Dose",54,"Time to First Dermatologic Event","TTDE",2,19737,19738,0,"Dematologic Event Occured","ADAE","ASTDT",6,"Y"],[236,"CDISCPILOT01","717","01-717-1109",84,">80",3,"WHITE",1,"M",19750,19932,183,"Xanomeline High Dose","Xanomeline High Dose",81,"Time to First Dermatologic Event","TTDE",20,19750,19769,0,"Dematologic Event Occured","ADAE","ASTDT",2,"Y"],[237,"CDISCPILOT01","717","01-717-1174",73,"65-80",2,"WHITE",1,"M",19380,19563,184,"Xanomeline High Dose","Xanomeline High Dose",81,"Time to First Dermatologic Event","TTDE",5,19380,19384,0,"Dematologic Event Occured","ADAE","ASTDT",1,"Y"],[238,"CDISCPILOT01","717","01-717-1201",85,">80",3,"WHITE",1,"F",19711,19775,65,"Placebo","Placebo",0,"Time to First Dermatologic Event","TTDE",1,19711,19711,0,"Dematologic Event Occured","ADAE","ASTDT",1,"Y"],[239,"CDISCPILOT01","717","01-717-1344",64,"<65",1,"WHITE",1,"F",19734,19796,63,"Placebo","Placebo",0,"Time to First Dermatologic Event","TTDE",63,19734,19796,1,"Study Completion Date","ADSL","RFENDT",null,"Y"],[240,"CDISCPILOT01","717","01-717-1357",77,"65-80",2,"WHITE",1,"M",19479,19645,167,"Xanomeline High Dose","Xanomeline High Dose",81,"Time to First Dermatologic Event","TTDE",23,19479,19501,0,"Dematologic Event Occured","ADAE","ASTDT",2,"Y"],[241,"CDISCPILOT01","717","01-717-1446",75,"65-80",2,"WHITE",1,"F",19602,19785,184,"Xanomeline Low Dose","Xanomeline Low Dose",54,"Time to First Dermatologic Event","TTDE",19,19602,19620,0,"Dematologic Event Occured","ADAE","ASTDT",3,"Y"],[242,"CDISCPILOT01","718","01-718-1066",79,"65-80",2,"WHITE",1,"F",19546,19555,10,"Xanomeline Low Dose","Xanomeline Low Dose",54,"Time to First Dermatologic Event","TTDE",24,19546,19569,1,"Study Completion Date","ADSL","RFENDT",null,"Y"],[243,"CDISCPILOT01","718","01-718-1079",67,"65-80",2,"WHITE",1,"F",19255,19297,43,"Xanomeline Low Dose","Xanomeline Low Dose",54,"Time to First Dermatologic Event","TTDE",17,19255,19271,0,"Dematologic Event Occured","ADAE","ASTDT",2,"Y"],[244,"CDISCPILOT01","718","01-718-1101",82,">80",3,"BLACK OR AFRICAN AMERICAN",2,"M",19406,19570,165,"Xanomeline High Dose","Xanomeline High Dose",81,"Time to First Dermatologic Event","TTDE",167,19406,19572,1,"Study Completion Date","ADSL","RFENDT",null,"Y"],[245,"CDISCPILOT01","718","01-718-1139",77,"65-80",2,"WHITE",1,"M",19497,19679,183,"Placebo","Placebo",0,"Time to First Dermatologic Event","TTDE",183,19497,19679,1,"Study Completion Date","ADSL","RFENDT",null,"Y"],[246,"CDISCPILOT01","718","01-718-1150",73,"65-80",2,"WHITE",1,"F",19377,19568,192,"Placebo","Placebo",0,"Time to First Dermatologic Event","TTDE",56,19377,19432,0,"Dematologic Event Occured","ADAE","ASTDT",3,"Y"],[247,"CDISCPILOT01","718","01-718-1170",80,"65-80",2,"WHITE",1,"F",19617,19643,27,"Xanomeline Low Dose","Xanomeline Low Dose",54,"Time to First Dermatologic Event","TTDE",49,19617,19665,1,"Study Completion Date","ADSL","RFENDT",null,"Y"],[248,"CDISCPILOT01","718","01-718-1172",74,"65-80",2,"WHITE",1,"M",19622,19691,70,"Placebo","Placebo",0,"Time to First Dermatologic Event","TTDE",70,19622,19691,1,"Study Completion Date","ADSL","RFENDT",null,"Y"],[249,"CDISCPILOT01","718","01-718-1250",82,">80",3,"WHITE",1,"F",19622,19754,133,"Xanomeline Low Dose","Xanomeline Low Dose",54,"Time to First Dermatologic Event","TTDE",100,19622,19721,0,"Dematologic Event Occured","ADAE","ASTDT",9,"Y"],[250,"CDISCPILOT01","718","01-718-1254",78,"65-80",2,"WHITE",1,"M",19549,19732,184,"Xanomeline Low Dose","Xanomeline Low Dose",54,"Time to First Dermatologic Event","TTDE",35,19549,19583,0,"Dematologic Event Occured","ADAE","ASTDT",4,"Y"],[251,"CDISCPILOT01","718","01-718-1328",86,">80",3,"WHITE",1,"M",19390,19466,77,"Xanomeline High Dose","Xanomeline High Dose",81,"Time to First Dermatologic Event","TTDE",51,19390,19440,0,"Dematologic Event Occured","ADAE","ASTDT",1,"Y"],[252,"CDISCPILOT01","718","01-718-1355",79,"65-80",2,"WHITE",1,"M",19417,19599,183,"Placebo","Placebo",0,"Time to First Dermatologic Event","TTDE",9,19417,19425,0,"Dematologic Event Occured","ADAE","ASTDT",1,"Y"],[253,"CDISCPILOT01","718","01-718-1371",69,"65-80",2,"WHITE",1,"F",19474,19571,98,"Xanomeline High Dose","Xanomeline High Dose",81,"Time to First Dermatologic Event","TTDE",29,19474,19502,0,"Dematologic Event Occured","ADAE","ASTDT",3,"Y"],[254,"CDISCPILOT01","718","01-718-1427",74,"65-80",2,"BLACK OR AFRICAN AMERICAN",2,"F",19344,19400,57,"Xanomeline High Dose","Xanomeline High Dose",81,"Time to First Dermatologic Event","TTDE",42,19344,19385,0,"Dematologic Event Occured","ADAE","ASTDT",9,"Y"]]}}}}